workerid,proliferate.condition,ExpFiller,Intro_object,Prime,Res_object,clicking_practice_trial_number,competitor1,competitor2,condition,condition1,correctAns1,correctAns2,determiner,determiner1,displayID,display_type,figure,instruction1,instruction3,list,location1,location10,location2,location3,location4,location5,location6,location7,location8,location9,object1,object2,object3,object4,practiceTrialType,practice_trial_number,prime,response,response_times,setting,size,size1,target1,target2,target_figure1,target_figure3,target_object1,target_object3,trial_number,catch_trials,subject_information.age,subject_information.comments,subject_information.education,subject_information.enjoyment,subject_information.fairprice,subject_information.gender,subject_information.language,subject_information.problems,system.Browser,system.OS,system.screenH,system.screenW,time_in_minutes,error
120,List1,Prac,Fruit_Susan_Monday,,Fruit_residue,1,2,,,two,AOI1,AOI7,,two,1,33-33,Susan,Click on the boy that has two of Susan's apples,,,2_apples,girl,3_bananas,2_pears,3_oranges,1_apple,1_pear,boy,boy,girl,apples,D3_pears,D3_bananas,D3_oranges,clicking practice,,BoyTwoSusanapples,"['AOI9', 'AOI7', 'AOI7', 'AOI7']",,fruit,,small,1,,boy,,2_apples,,,[],20,,2,1,Yes,Female,English,,Chrome,Mac,768,1366,9.266316666666668,
120,List1,Prac,Fruit_Susan_Tuesday,,Slience,2,1,,,some,AOI3,AOI9,,some,2,44-22,Susan,Click on the girl that has some of Susan's apples,,,3_bananas,girl,2_pears,3_apples,2_oranges,1_apple,1_banana,boy,boy,girl,apples,D2_pears,D4_bananas,D2_oranges,clicking practice,,GirlSomeSusanapples,"['AOI7', 'AOI9', 'AOI10', 'AOI9']",,fruit,,small,3,,girl,,3_apples,,,[],20,,2,1,Yes,Female,English,,Chrome,Mac,768,1366,9.266316666666668,
120,List1,Prac,Stationary_Michael_Monday,,Residue_stationary,3,4,,,num,AOI1,AOI7,,three,3,33-33,Michael,Click on the boy that has three of Michael's scissors,,,3_scissors,girl,2_pencils,3_erasers,2_rulers,1_pencil,1_ruler,boy,boy,girl,erasers,D3_pencils,D3_erasers,D3_rulers,clicking practice,,BoyThreeMichaelscissors,"['AOI8', 'AOI8', 'AOI8', 'AOI7']",,office supplies,,big,1,,boy,,3_scissors,,,[],20,,2,1,Yes,Female,English,,Chrome,Mac,768,1366,9.266316666666668,
120,List1,Prac,Stationary_Michael_Tuesday,,Residue_stationary,4,3,,,all,AOI4,AOI10,,all,4,44-22,Michael,Click on the girl that has all of Michael's rulers,,,3_pencils,girl,2_scissors,3_erasers,2_rulers,1_pencil,1_eraser,boy,boy,girl,rulers,D4_pencils,D4_erasers,D2_rulers,clicking practice,,GirlAllMichaelrulers,"['AOI9', 'AOI9', 'AOI10', 'AOI10']",,office supplies,,small,4,,girl,,2_rulers,,,[],20,,2,1,Yes,Female,English,,Chrome,Mac,768,1366,9.266316666666668,
120,List1,Prac,kitchware_Amy_Monday,,Residue_kitchen,,4,,,num,AOI3,AOI9,,three,5,44-22,Amy,Click on the girl that has three of Amy's knives,,,2_spoons,girl,3_forks,3_knives,2_plates,1_fork,1_knife,boy,boy,girl,knives,D4_forks,D2_spoons,D4_knives,production practice,1,GirlThreeAmyknives,girl with some of the knives,,kitchenwares,,big,3,,girl,,3_knives,,,[],20,,2,1,Yes,Female,English,,Chrome,Mac,768,1366,9.266316666666668,
120,List1,Prac,kitchware_Amy_Tuesday,,Slience,,2,,,some,AOI4,AOI10,,some,6,33-33,Amy,Click on the girl that has some of Amy's forks,,,3_spoons,girl,2_knives,3_plates,2_forks,1_fork,1_knife,boy,boy,girl,forks,D3_forks,D3_spoons,D3_knives,production practice,2,GirlSomeAmyforks,girl with forks,,kitchenwares,,big,4,,girl,,2_forks,,,[],20,,2,1,Yes,Female,English,,Chrome,Mac,768,1366,9.266316666666668,
120,List1,Exp,,GirlAllMichaelErasers,,,4,10,all,,AOI3,AOI9,all,,26,44-22,Michael's,,Click on the girl that has all of Michael's erasers,1,3_pencils,girl,2_scissors,2_erasers,3_rulers,1_pencil,1_ruler,boy,boy,girl,,,,,,,,girl with erasers,7970,stationeries,small,,3,9,,girl,,2_erasers,1,[],20,,2,1,Yes,Female,English,,Chrome,Mac,768,1366,9.266316666666668,
120,List1,Exp,,BoyTwoAmySpoons,,,2,8,num,,AOI1,AOI7,two,,32,44-22,Amy's,,Click on the boy that has two of Amy's spoons,1,2_spoons,girl,3_knives,3_forks,2_plates,1_fork,1_knife,boy,boy,girl,,,,,,,,boy with some spoons,8112,kitchenwares,small,,1,7,,boy,,2_spoons,2,[],20,,2,1,Yes,Female,English,,Chrome,Mac,768,1366,9.266316666666668,
120,List1,Exp,,GirlAllSusanBananas,,,4,10,all,,AOI3,AOI9,all,,4,33-33,Susan's,,Click on the girl that has all of Susan's bananas,1,2_pears,girl,3_apples,3_bananas,2_oranges,1_orange,1_pear,boy,boy,girl,,,,,,,,girl with bananas,7985,fruit,big,,3,9,,girl,,3_bananas,3,[],20,,2,1,Yes,Female,English,,Chrome,Mac,768,1366,9.266316666666668,
120,List1,Filler,,BoyOneAmyPlates,,,2,8,one,,AOI1,AOI7,one,,38,33-33,Amy's,,Click on the boy that has one of Amy's plates,1,1_plate,girl,3_knives,3_forks,3_spoons,2_plates,0,boy,boy,girl,,,,,,,,boy with a plate,10470,kitchenwares,small,,1,7,,boy,,1_plate,4,[],20,,2,1,Yes,Female,English,,Chrome,Mac,768,1366,9.266316666666668,
120,List1,Exp,,BoyTwoSusanApples,,,2,8,num,,AOI1,AOI7,two,,24,44-22,Susan's,,Click on the boy that has two of Susan's apples,1,2_apples,girl,3_pears,3_bananas,2_oranges,1_banana,1_pear,boy,boy,girl,,,,,,,,boy with some apples,6970,fruit,small,,1,7,,boy,,2_apples,5,[],20,,2,1,Yes,Female,English,,Chrome,Mac,768,1366,9.266316666666668,
120,List1,Exp,,GirlSomeSusanApples,,,4,10,some,,AOI3,AOI9,some,,20,44-22,Susan's,,Click on the girl that has some of Susan's apples,1,3_pears,girl,2_bananas,3_apples,2_oranges,1_apple,1_pear,boy,boy,girl,,,,,,,,girl with apples,4978,fruit,big,,3,9,,girl,,3_apples,6,[],20,,2,1,Yes,Female,English,,Chrome,Mac,768,1366,9.266316666666668,
120,List1,Exp,,BoySomeMichaelScissors,,,1,7,some,,AOI2,AOI8,some,,12,33-33,Michael's,,Click on the boy that has some of Michael's scissors,1,3_rulers,girl,2_scissors,2_pencils,3_erasers,1_pencil,1_scissor,boy,boy,girl,,,,,,,,boy with scissors,6623,stationeries,small,,2,8,,boy,,2_scissors,7,[],20,,2,1,Yes,Female,English,,Chrome,Mac,768,1366,9.266316666666668,
120,List1,Exp,,BoyAllSusanPears,,,1,7,all,,AOI2,AOI8,all,,3,33-33,Susan's,,Click on the boy that has all of Susan's pears,1,2_apples,girl,3_pears,2_bananas,3_oranges,1_apple,1_banana,boy,boy,girl,,,,,,,,boy with pears,8657,fruit,big,,2,8,,boy,,3_pears,8,[],20,,2,1,Yes,Female,English,,Chrome,Mac,768,1366,9.266316666666668,
120,List1,Exp,,GirlSomeSusanBananas,,,3,9,some,,AOI4,AOI10,some,,19,44-22,Susan's,,Click on the girl that has some of Susan's bananas,1,3_oranges,girl,2_apples,2_pears,3_bananas,1_banana,1_orange,boy,boy,girl,,,,,,,,girl with bananas,6301,fruit,big,,4,10,,girl,,3_bananas,9,[],20,,2,1,Yes,Female,English,,Chrome,Mac,768,1366,9.266316666666668,
120,List1,Filler,,BoyFourMichaelScissors,,,2,8,four,,AOI1,AOI7,four,,43,44-22,Michael's,,Click on the boy that has four of Michael's scissors,1,4_scissors,girl,1_pencil,2_rulers,3_erasers,1_pencil,1_eraser,boy,boy,girl,,,,,,,,boy with scissors,7954,stationeries,big,,1,7,,boy,,4_scissors,10,[],20,,2,1,Yes,Female,English,,Chrome,Mac,768,1366,9.266316666666668,
120,List1,Exp,,GirlTwoAmyForks,,,3,9,num,,AOI4,AOI10,two,,13,33-33,Amy's,,Click on the girl that has two of Amy's forks,1,2_knives,girl,3_spoons,3_plates,2_forks,1_fork,1_knife,boy,boy,girl,,,,,,,,girl with forks,6759,kitchenwares,small,,4,10,,girl,,2_forks,11,[],20,,2,1,Yes,Female,English,,Chrome,Mac,768,1366,9.266316666666668,
120,List1,Filler,,BoyFourSusanBananas,,,1,7,four,,AOI2,AOI8,four,,44,44-22,Susan's,,Click on the boy that has four of Susan's bananas,1,1_orange,girl,4_bananas,3_pears,2_apples,1_orange,1_pear,boy,boy,girl,,,,,,,,boy with bananas,9097,fruit,big,,2,8,,boy,,4_bananas,12,[],20,,2,1,Yes,Female,English,,Chrome,Mac,768,1366,9.266316666666668,
120,List1,Exp,,BoySomeMichaelPencils,,,2,8,some,,AOI1,AOI7,some,,29,44-22,Michael's,,Click on the boy that has some of Michael's pencils,1,3_pencils,girl,2_erasers,3_scissors,2_rulers,1_pencil,1_scissor,boy,boy,girl,,,,,,,,boy with pencils,5726,stationeries,big,,1,7,,boy,,3_pencils,13,[],20,,2,1,Yes,Female,English,,Chrome,Mac,768,1366,9.266316666666668,
120,List1,Exp,,BoySomeMichaelErasers,,,2,8,some,,AOI1,AOI7,some,,11,33-33,Michael's,,Click on the boy that has some of Michael's erasers,1,2_erasers,girl,3_pencils,2_rulers,3_scissors,1_ruler,1_eraser,boy,boy,girl,,,,,,,,boy with erasers,6816,stationeries,small,,1,7,,boy,,2_erasers,14,[],20,,2,1,Yes,Female,English,,Chrome,Mac,768,1366,9.266316666666668,
120,List1,Exp,,GirlAllMichaelPencils,,,3,9,all,,AOI4,AOI10,all,,25,44-22,Michael's,,Click on the girl that has all of Michael's pencils,1,3_erasers,girl,2_rulers,3_scissors,2_pencils,1_eraser,1_scissor,boy,boy,girl,,,,,,,,girl with pencils,5520,stationeries,small,,4,10,,girl,,2_pencils,15,[],20,,2,1,Yes,Female,English,,Chrome,Mac,768,1366,9.266316666666668,
120,List1,Exp,,GirlAllAmyPlates,,,3,9,all,,AOI4,AOI10,all,,35,44-22,Amy's,,Click on the girl that has all of Amy's plates,1,3_spoons,girl,2_forks,3_knives,2_plates,1_spoon,1_knife,boy,boy,girl,,,,,,,,girl with plates,5112,kitchenwares,small,,4,10,,girl,,2_plates,16,[],20,,2,1,Yes,Female,English,,Chrome,Mac,768,1366,9.266316666666668,
120,List1,Filler,,GirlFourAmyPlates,,,3,9,four,,AOI4,AOI10,four,,47,44-22,Amy's,,Click on the girl that has four of Amy's plates,1,1_knife,girl,3_forks,2_spoons,4_plates,1_knife,1_fork,boy,boy,girl,,,,,,,,girl with plates,5728,kitchenwares,big,,4,10,,girl,,4_plates,17,[],20,,2,1,Yes,Female,English,,Chrome,Mac,768,1366,9.266316666666668,
120,List1,Exp,,BoyTwoMichaelPencils,,,1,7,num,,AOI2,AOI8,two,,28,44-22,Michael's,,Click on the boy that has two of Michael's pencils,1,3_scissors,girl,2_pencils,2_erasers,3_rulers,1_ruler,1_scissor,boy,boy,girl,,,,,,,,boy with pencils,4816,stationeries,small,,2,8,,boy,,2_pencils,18,[],20,,2,1,Yes,Female,English,,Chrome,Mac,768,1366,9.266316666666668,
120,List1,Filler,,GirlOneSusanPears,,,3,9,one,,AOI4,AOI10,one,,42,33-33,Susan's,,Click on the girl that has one of Susan's pears,1,3_bananas,girl,3_oranges,3_apples,1_pear,2_pears,0,boy,boy,girl,,,,,,,,girl with a pear,9351,fruit,small,,4,10,,girl,,1_pear,19,[],20,,2,1,Yes,Female,English,,Chrome,Mac,768,1366,9.266316666666668,
120,List1,Exp,,GirlTwoSusanBananas,,,3,9,num,,AOI4,AOI10,two,,5,33-33,Susan's,,Click on the girl that has two of Susan's bananas,1,2_pears,girl,3_apples,3_oranges,2_bananas,1_banana,1_pear,boy,boy,girl,,,,,,,,girl with bananas,8889,fruit,small,,4,10,,girl,,2_bananas,20,[],20,,2,1,Yes,Female,English,,Chrome,Mac,768,1366,9.266316666666668,
120,List1,Exp,,BoyAllAmyKnives,,,2,8,all,,AOI1,AOI7,all,,18,33-33,Amy's,,Click on the boy that has all of Amy's knives,1,3_knives,girl,2_plates,3_spoons,2_forks,1_plate,1_fork,boy,boy,girl,,,,,,,,boy with knives,5687,kitchenwares,big,,1,7,,boy,,3_knives,21,[],20,,2,1,Yes,Female,English,,Chrome,Mac,768,1366,9.266316666666668,
120,List1,Exp,,GirlThreeMichaelScissors,,,4,10,num,,AOI3,AOI9,three,,10,33-33,Michael's,,Click on the girl that has three of Michael's scissors,1,3_rulers,girl,2_erasers,3_scissors,2_pencils,1_pencil,1_eraser,boy,boy,girl,,,,,,,,girl with scissors,4768,stationeries,big,,3,9,,girl,,3_scissors,22,[],20,,2,1,Yes,Female,English,,Chrome,Mac,768,1366,9.266316666666668,
120,List1,Exp,,GirlSomeAmyPlates,,,3,9,some,,AOI4,AOI10,some,,16,33-33,Amy's,,Click on the girl that has some of Amy's plates,1,2_forks,girl,3_knives,3_spoons,2_plates,1_fork,1_plate,boy,boy,girl,,,,,,,,girl with plates,6673,kitchenwares,small,,4,10,,girl,,2_plates,23,[],20,,2,1,Yes,Female,English,,Chrome,Mac,768,1366,9.266316666666668,
120,List1,Exp,,BoyThreeAmyKnives,,,1,7,num,,AOI2,AOI8,three,,14,33-33,Amy's,,Click on the boy that has three of Amy's knives,1,2_spoons,girl,3_knives,2_plates,3_forks,1_spoon,1_plate,boy,boy,girl,,,,,,,,boy with knives,5974,kitchenwares,big,,2,8,,boy,,3_knives,24,[],20,,2,1,Yes,Female,English,,Chrome,Mac,768,1366,9.266316666666668,
120,List1,Exp,,GirlSomeAmyForks,,,4,10,some,,AOI3,AOI9,some,,34,44-22,Amy's,,Click on the girl that has some of Amy's forks,1,2_spoons,girl,3_plates,3_forks,2_knives,1_fork,1_plate,boy,boy,girl,,,,,,,,girl with forks,5706,kitchenwares,big,,3,9,,girl,,3_forks,25,[],20,,2,1,Yes,Female,English,,Chrome,Mac,768,1366,9.266316666666668,
120,List1,Filler,,GirlOneMichaelErasers,,,4,10,one,,AOI3,AOI9,one,,41,33-33,Michael's,,Click on the girl that has one of Michael's erasers,1,3_pencils,girl,3_scissors,1_eraser,3_rulers,2_erasers,0,boy,boy,girl,,,,,,,,girl with an eraser,4664,stationeries,small,,3,9,,girl,,1_eraser,26,[],20,,2,1,Yes,Female,English,,Chrome,Mac,768,1366,9.266316666666668,
120,List1,Exp,,GirlTwoMichaelRulers,,,4,10,num,,AOI3,AOI9,two,,9,33-33,Michael's,,Click on the girl that has two of Michael's rulers,1,3_pencils,girl,2_scissors,2_rulers,3_erasers,1_ruler,1_scissor,boy,boy,girl,,,,,,,,girl with rulers,6656,stationeries,small,,3,9,,girl,,2_rulers,27,[],20,,2,1,Yes,Female,English,,Chrome,Mac,768,1366,9.266316666666668,
120,List1,Exp,,BoyAllAmyForks,,,1,7,all,,AOI2,AOI8,all,,17,33-33,Amy's,,Click on the boy that has all of Amy's forks,1,2_spoons,girl,3_forks,2_knives,3_plates,1_spoon,1_knife,boy,boy,girl,,,,,,,,boy with forks,4368,kitchenwares,big,,2,8,,boy,,3_forks,28,[],20,,2,1,Yes,Female,English,,Chrome,Mac,768,1366,9.266316666666668,
120,List1,Exp,,GirlThreeSusanOranges,,,4,10,num,,AOI3,AOI9,three,,23,44-22,Susan's,,Click on the girl that has three of Susan's oranges,1,3_apples,girl,2_pears,3_oranges,2_bananas,1_apple,1_orange,boy,boy,girl,,,,,,,,girl with oranges,6391,fruit,big,,3,9,,girl,,3_oranges,29,[],20,,2,1,Yes,Female,English,,Chrome,Mac,768,1366,9.266316666666668,
120,List1,Exp,,BoyAllSusanOranges,,,1,7,all,,AOI2,AOI8,all,,21,44-22,Susan's,,Click on the boy that has all of Susan's oranges,1,3_bananas,girl,2_oranges,3_apples,2_pears,1_apple,1_banana,boy,boy,girl,,,,,,,,boy with oranges,5872,fruit,small,,2,8,,boy,,2_oranges,30,[],20,,2,1,Yes,Female,English,,Chrome,Mac,768,1366,9.266316666666668,
120,List1,Exp,,BoySomeAmySpoons,,,1,7,some,,AOI2,AOI8,some,,33,44-22,Amy's,,Click on the boy that has some of Amy's spoons,1,2_plates,girl,3_spoons,2_forks,3_knives,1_spoon,1_knife,boy,boy,girl,,,,,,,,boy with some spoons,10874,kitchenwares,big,,2,8,,boy,,3_spoons,31,[],20,,2,1,Yes,Female,English,,Chrome,Mac,768,1366,9.266316666666668,
120,List1,Exp,,GirlAllAmySpoons,,,4,10,all,,AOI3,AOI9,all,,36,44-22,Amy's,,Click on the girl that has all of Amy's spoons,1,3_plates,girl,2_knives,2_spoons,3_forks,1_plate,1_fork,boy,boy,girl,,,,,,,,girl with spoons,10200,kitchenwares,small,,3,9,,girl,,2_spoons,32,[],20,,2,1,Yes,Female,English,,Chrome,Mac,768,1366,9.266316666666668,
120,List1,Filler,,GirlFourMichaelPencils,,,3,9,four,,AOI4,AOI10,four,,48,44-22,Michael's,,Click on the girl that has four of Michael's pencils,1,1_ruler,girl,2_erasers,3_scissors,4_pencils,1_ruler,1_scissor,boy,boy,girl,,,,,,,,girl with pencils,3848,stationeries,big,,4,10,,girl,,4_pencils,33,[],20,,2,1,Yes,Female,English,,Chrome,Mac,768,1366,9.266316666666668,
120,List1,Filler,,BoyOneMichaelRulers,,,1,7,one,,AOI2,AOI8,one,,40,33-33,Michael's,,Click on the boy that has one of Michael's rulers,1,3_erasers,girl,1_ruler,3_pencils,3_scissors,2_scissors,0,boy,boy,girl,,,,,,,,boy with a ruler,3304,stationeries,small,,2,8,,boy,,1_ruler,34,[],20,,2,1,Yes,Female,English,,Chrome,Mac,768,1366,9.266316666666668,
120,List1,Filler,,GirlFourAmyKnives,,,4,10,four,,AOI3,AOI9,four,,46,44-22,Amy's,,Click on the girl that has four of Amy's knives,1,1_spoon,girl,3_plates,4_knives,2_forks,1_spoon,1_plate,boy,boy,girl,,,,,,,,girl with knives,4824,kitchenwares,big,,3,9,,girl,,4_knives,35,[],20,,2,1,Yes,Female,English,,Chrome,Mac,768,1366,9.266316666666668,
120,List1,Exp,,BoySomeSusanPears,,,2,8,some,,AOI1,AOI7,some,,1,33-33,Susan's,,Click on the boy that has some of Susan's pears,1,2_pears,girl,3_bananas,2_apples,3_oranges,1_apple,1_pear,boy,boy,girl,,,,,,,,boy with pears,5718,fruit,small,,1,7,,boy,,2_pears,36,[],20,,2,1,Yes,Female,English,,Chrome,Mac,768,1366,9.266316666666668,
120,List1,Exp,,GirlSomeMichaelRulers,,,3,9,some,,AOI4,AOI10,some,,30,44-22,Michael's,,Click on the girl that has some of Michael's rulers,1,3_erasers,girl,2_pencils,2_scissors,3_rulers,1_ruler,1_eraser,boy,boy,girl,,,,,,,,girl with rulers,3201,stationeries,big,,4,10,,girl,,3_rulers,37,[],20,,2,1,Yes,Female,English,,Chrome,Mac,768,1366,9.266316666666668,
120,List1,Exp,,GirlSomeAmyKnives,,,4,10,some,,AOI3,AOI9,some,,15,33-33,Amy's,,Click on the girl that has some of Amy's knives,1,2_spoons,girl,3_plates,2_knives,3_forks,1_spoon,1_knife,boy,boy,girl,,,,,,,,girl with knives,5416,kitchenwares,small,,3,9,,girl,,2_knives,38,[],20,,2,1,Yes,Female,English,,Chrome,Mac,768,1366,9.266316666666668,
120,List1,Exp,,BoyAllSusanApples,,,2,8,all,,AOI1,AOI7,all,,22,44-22,Susan's,,Click on the boy that has all of Susan's apples,1,2_apples,girl,3_pears,3_oranges,2_bananas,1_orange,1_pear,boy,boy,girl,,,,,,,,boy with apples,4744,fruit,small,,1,7,,boy,,2_apples,39,[],20,,2,1,Yes,Female,English,,Chrome,Mac,768,1366,9.266316666666668,
120,List1,Filler,,BoyOneSusanApples,,,2,8,one,,AOI1,AOI7,one,,37,33-33,Susan's,,Click on the boy that has one of Susan's apples,1,1_apple,girl,3_pears,3_bananas,3_oranges,2_apples,0,boy,boy,girl,,,,,,,,boy with a apple,6097,fruit,small,,1,7,,boy,,1_apple,40,[],20,,2,1,Yes,Female,English,,Chrome,Mac,768,1366,9.266316666666668,
120,List1,Exp,,GirlAllMichaelRulers,,,3,9,all,,AOI4,AOI10,all,,8,33-33,Michael's,,Click on the girl that has all of Michael's rulers,1,2_scissors,girl,3_pencils,2_erasers,3_rulers,1_eraser,1_scissor,boy,boy,girl,,,,,,,,girl with rulers,6296,stationeries,big,,4,10,,girl,,3_rulers,41,[],20,,2,1,Yes,Female,English,,Chrome,Mac,768,1366,9.266316666666668,
120,List1,Filler,,BoyOneAmySpoons,,,1,7,one,,AOI2,AOI8,one,,39,33-33,Amy's,,Click on the boy that has one of Amy's spoons,1,3_forks,girl,1_spoon,3_plates,3_knives,2_spoons,0,boy,boy,girl,,,,,,,,boy with a spoon,5344,kitchenwares,small,,2,8,,boy,,1_spoon,42,[],20,,2,1,Yes,Female,English,,Chrome,Mac,768,1366,9.266316666666668,
120,List1,Exp,,GirlThreeSusanPears,,,3,9,num,,AOI4,AOI10,three,,6,33-33,Susan's,,Click on the girl that has three of Susan's pears,1,2_oranges,girl,3_bananas,2_apples,3_pears,1_apple,1_orange,boy,boy,girl,,,,,,,,girl with pears,3655,fruit,big,,4,10,,girl,,3_pears,43,[],20,,2,1,Yes,Female,English,,Chrome,Mac,768,1366,9.266316666666668,
120,List1,Exp,,BoySomeSusanOranges,,,1,7,some,,AOI2,AOI8,some,,2,33-33,Susan's,,Click on the boy that has some of Susan's oranges,1,3_apples,girl,2_oranges,2_bananas,3_pears,1_banana,1_orange,boy,boy,girl,,,,,,,,boy with oranges,6015,fruit,small,,2,8,,boy,,2_oranges,44,[],20,,2,1,Yes,Female,English,,Chrome,Mac,768,1366,9.266316666666668,
120,List1,Exp,,BoyAllMichaelScissors,,,2,8,all,,AOI1,AOI7,all,,7,33-33,Michael's,,Click on the boy that has all of Michael's scissors,1,3_scissors,girl,2_pencils,3_erasers,2_rulers,1_pencil,1_ruler,boy,boy,girl,,,,,,,,boy with scissors,5128,stationeries,big,,1,7,,boy,,3_scissors,45,[],20,,2,1,Yes,Female,English,,Chrome,Mac,768,1366,9.266316666666668,
120,List1,Exp,,BoyThreeAmyPlates,,,2,8,num,,AOI1,AOI7,three,,31,44-22,Amy's,,Click on the boy that has three of Amy's plates,1,3_plates,girl,2_forks,3_spoons,2_knives,1_spoon,1_plate,boy,boy,girl,,,,,,,,boy with plates,36323,kitchenwares,big,,1,7,,boy,,3_plates,46,[],20,,2,1,Yes,Female,English,,Chrome,Mac,768,1366,9.266316666666668,
120,List1,Exp,,BoyThreeMichaelErasers,,,1,7,num,,AOI2,AOI8,three,,27,44-22,Michael's,,Click on the boy that has three of Michael's erasers,1,2_rulers,girl,3_erasers,2_scissors,3_pencils,1_pencil,1_eraser,boy,boy,girl,,,,,,,,boy with erasers,4311,stationeries,big,,2,8,,boy,,3_erasers,47,[],20,,2,1,Yes,Female,English,,Chrome,Mac,768,1366,9.266316666666668,
120,List1,Filler,,GirlFourSusanOranges,,,4,10,four,,AOI3,AOI9,four,,45,44-22,Susan's,,Click on the girl that has four of Susan's oranges,1,2_pears,girl,3_apples,4_oranges,1_banana,1_banana,1_apple,boy,boy,girl,,,,,,,,girl with oranges,4710,fruit,big,,3,9,,girl,,4_oranges,48,[],20,,2,1,Yes,Female,English,,Chrome,Mac,768,1366,9.266316666666668,
128,List1,Prac,Fruit_Susan_Monday,,Fruit_residue,1,2,,,two,AOI1,AOI7,,two,1,33-33,Susan,Click on the boy that has two of Susan's apples,,,2_apples,girl,3_bananas,2_pears,3_oranges,1_apple,1_pear,boy,boy,girl,apples,D3_pears,D3_bananas,D3_oranges,clicking practice,,BoyTwoSusanapples,"['AOI7', 'AOI7', 'AOI7', 'AOI7']",,fruit,,small,1,,boy,,2_apples,,,[],23,,3,1,$4,Female,English,No,Chrome,Windows,720,1280,7.861716666666666,
128,List1,Prac,Fruit_Susan_Tuesday,,Slience,2,1,,,some,AOI3,AOI9,,some,2,44-22,Susan,Click on the girl that has some of Susan's apples,,,3_bananas,girl,2_pears,3_apples,2_oranges,1_apple,1_banana,boy,boy,girl,apples,D2_pears,D4_bananas,D2_oranges,clicking practice,,GirlSomeSusanapples,"['AOI9', 'AOI9', 'AOI9', 'AOI9']",,fruit,,small,3,,girl,,3_apples,,,[],23,,3,1,$4,Female,English,No,Chrome,Windows,720,1280,7.861716666666666,
128,List1,Prac,Stationary_Michael_Monday,,Residue_stationary,3,4,,,num,AOI1,AOI7,,three,3,33-33,Michael,Click on the boy that has three of Michael's scissors,,,3_scissors,girl,2_pencils,3_erasers,2_rulers,1_pencil,1_ruler,boy,boy,girl,erasers,D3_pencils,D3_erasers,D3_rulers,clicking practice,,BoyThreeMichaelscissors,"['AOI8', 'AOI8', 'AOI7', 'AOI7']",,office supplies,,big,1,,boy,,3_scissors,,,[],23,,3,1,$4,Female,English,No,Chrome,Windows,720,1280,7.861716666666666,
128,List1,Prac,Stationary_Michael_Tuesday,,Residue_stationary,4,3,,,all,AOI4,AOI10,,all,4,44-22,Michael,Click on the girl that has all of Michael's rulers,,,3_pencils,girl,2_scissors,3_erasers,2_rulers,1_pencil,1_eraser,boy,boy,girl,rulers,D4_pencils,D4_erasers,D2_rulers,clicking practice,,GirlAllMichaelrulers,"['AOI7', 'AOI9', 'AOI10', 'AOI10']",,office supplies,,small,4,,girl,,2_rulers,,,[],23,,3,1,$4,Female,English,No,Chrome,Windows,720,1280,7.861716666666666,
128,List1,Prac,kitchware_Amy_Monday,,Residue_kitchen,,4,,,num,AOI3,AOI9,,three,5,44-22,Amy,Click on the girl that has three of Amy's knives,,,2_spoons,girl,3_forks,3_knives,2_plates,1_fork,1_knife,boy,boy,girl,knives,D4_forks,D2_spoons,D4_knives,production practice,1,GirlThreeAmyknives,girl who has three of Amy's knives,,kitchenwares,,big,3,,girl,,3_knives,,,[],23,,3,1,$4,Female,English,No,Chrome,Windows,720,1280,7.861716666666666,
128,List1,Prac,kitchware_Amy_Tuesday,,Slience,,2,,,some,AOI4,AOI10,,some,6,33-33,Amy,Click on the girl that has some of Amy's forks,,,3_spoons,girl,2_knives,3_plates,2_forks,1_fork,1_knife,boy,boy,girl,forks,D3_forks,D3_spoons,D3_knives,production practice,2,GirlSomeAmyforks,girl who has two of Amy's forks,,kitchenwares,,big,4,,girl,,2_forks,,,[],23,,3,1,$4,Female,English,No,Chrome,Windows,720,1280,7.861716666666666,
128,List1,Exp,,BoyAllSusanApples,,,2,8,all,,AOI1,AOI7,all,,22,44-22,Susan's,,Click on the boy that has all of Susan's apples,1,2_apples,girl,3_pears,3_oranges,2_bananas,1_orange,1_pear,boy,boy,girl,,,,,,,,two red apples,39709,fruit,small,,1,7,,boy,,2_apples,1,[],23,,3,1,$4,Female,English,No,Chrome,Windows,720,1280,7.861716666666666,
128,List1,Filler,,GirlFourSusanOranges,,,4,10,four,,AOI3,AOI9,four,,45,44-22,Susan's,,Click on the girl that has four of Susan's oranges,1,2_pears,girl,3_apples,4_oranges,1_banana,1_banana,1_apple,boy,boy,girl,,,,,,,,four oranges,7800,fruit,big,,3,9,,girl,,4_oranges,2,[],23,,3,1,$4,Female,English,No,Chrome,Windows,720,1280,7.861716666666666,
128,List1,Exp,,GirlTwoSusanBananas,,,3,9,num,,AOI4,AOI10,two,,5,33-33,Susan's,,Click on the girl that has two of Susan's bananas,1,2_pears,girl,3_apples,3_oranges,2_bananas,1_banana,1_pear,boy,boy,girl,,,,,,,,two bananas,4275,fruit,small,,4,10,,girl,,2_bananas,3,[],23,,3,1,$4,Female,English,No,Chrome,Windows,720,1280,7.861716666666666,
128,List1,Exp,,BoyAllAmyForks,,,1,7,all,,AOI2,AOI8,all,,17,33-33,Amy's,,Click on the boy that has all of Amy's forks,1,2_spoons,girl,3_forks,2_knives,3_plates,1_spoon,1_knife,boy,boy,girl,,,,,,,,three forks,4909,kitchenwares,big,,2,8,,boy,,3_forks,4,[],23,,3,1,$4,Female,English,No,Chrome,Windows,720,1280,7.861716666666666,
128,List1,Filler,,GirlOneSusanPears,,,3,9,one,,AOI4,AOI10,one,,42,33-33,Susan's,,Click on the girl that has one of Susan's pears,1,3_bananas,girl,3_oranges,3_apples,1_pear,2_pears,0,boy,boy,girl,,,,,,,,one pear,5192,fruit,small,,4,10,,girl,,1_pear,5,[],23,,3,1,$4,Female,English,No,Chrome,Windows,720,1280,7.861716666666666,
128,List1,Filler,,BoyOneAmyPlates,,,2,8,one,,AOI1,AOI7,one,,38,33-33,Amy's,,Click on the boy that has one of Amy's plates,1,1_plate,girl,3_knives,3_forks,3_spoons,2_plates,0,boy,boy,girl,,,,,,,,one plate,4864,kitchenwares,small,,1,7,,boy,,1_plate,6,[],23,,3,1,$4,Female,English,No,Chrome,Windows,720,1280,7.861716666666666,
128,List1,Filler,,BoyOneSusanApples,,,2,8,one,,AOI1,AOI7,one,,37,33-33,Susan's,,Click on the boy that has one of Susan's apples,1,1_apple,girl,3_pears,3_bananas,3_oranges,2_apples,0,boy,boy,girl,,,,,,,,one apple,4487,fruit,small,,1,7,,boy,,1_apple,7,[],23,,3,1,$4,Female,English,No,Chrome,Windows,720,1280,7.861716666666666,
128,List1,Exp,,BoyThreeAmyPlates,,,2,8,num,,AOI1,AOI7,three,,31,44-22,Amy's,,Click on the boy that has three of Amy's plates,1,3_plates,girl,2_forks,3_spoons,2_knives,1_spoon,1_plate,boy,boy,girl,,,,,,,,three plates,4472,kitchenwares,big,,1,7,,boy,,3_plates,8,[],23,,3,1,$4,Female,English,No,Chrome,Windows,720,1280,7.861716666666666,
128,List1,Exp,,BoyThreeMichaelErasers,,,1,7,num,,AOI2,AOI8,three,,27,44-22,Michael's,,Click on the boy that has three of Michael's erasers,1,2_rulers,girl,3_erasers,2_scissors,3_pencils,1_pencil,1_eraser,boy,boy,girl,,,,,,,,boy with three erasers,7408,stationeries,big,,2,8,,boy,,3_erasers,9,[],23,,3,1,$4,Female,English,No,Chrome,Windows,720,1280,7.861716666666666,
128,List1,Exp,,GirlSomeSusanBananas,,,3,9,some,,AOI4,AOI10,some,,19,44-22,Susan's,,Click on the girl that has some of Susan's bananas,1,3_oranges,girl,2_apples,2_pears,3_bananas,1_banana,1_orange,boy,boy,girl,,,,,,,,girl with three bananas,5291,fruit,big,,4,10,,girl,,3_bananas,10,[],23,,3,1,$4,Female,English,No,Chrome,Windows,720,1280,7.861716666666666,
128,List1,Exp,,BoySomeMichaelPencils,,,2,8,some,,AOI1,AOI7,some,,29,44-22,Michael's,,Click on the boy that has some of Michael's pencils,1,3_pencils,girl,2_erasers,3_scissors,2_rulers,1_pencil,1_scissor,boy,boy,girl,,,,,,,,boy with two pencils,4526,stationeries,big,,1,7,,boy,,3_pencils,11,[],23,,3,1,$4,Female,English,No,Chrome,Windows,720,1280,7.861716666666666,
128,List1,Exp,,GirlSomeMichaelRulers,,,3,9,some,,AOI4,AOI10,some,,30,44-22,Michael's,,Click on the girl that has some of Michael's rulers,1,3_erasers,girl,2_pencils,2_scissors,3_rulers,1_ruler,1_eraser,boy,boy,girl,,,,,,,,girl with three rulers,7552,stationeries,big,,4,10,,girl,,3_rulers,12,[],23,,3,1,$4,Female,English,No,Chrome,Windows,720,1280,7.861716666666666,
128,List1,Exp,,GirlAllMichaelPencils,,,3,9,all,,AOI4,AOI10,all,,25,44-22,Michael's,,Click on the girl that has all of Michael's pencils,1,3_erasers,girl,2_rulers,3_scissors,2_pencils,1_eraser,1_scissor,boy,boy,girl,,,,,,,,girl with two pencils,5673,stationeries,small,,4,10,,girl,,2_pencils,13,[],23,,3,1,$4,Female,English,No,Chrome,Windows,720,1280,7.861716666666666,
128,List1,Exp,,GirlAllSusanBananas,,,4,10,all,,AOI3,AOI9,all,,4,33-33,Susan's,,Click on the girl that has all of Susan's bananas,1,2_pears,girl,3_apples,3_bananas,2_oranges,1_orange,1_pear,boy,boy,girl,,,,,,,,girl with three bananas,5276,fruit,big,,3,9,,girl,,3_bananas,14,[],23,,3,1,$4,Female,English,No,Chrome,Windows,720,1280,7.861716666666666,
128,List1,Exp,,GirlTwoMichaelRulers,,,4,10,num,,AOI3,AOI9,two,,9,33-33,Michael's,,Click on the girl that has two of Michael's rulers,1,3_pencils,girl,2_scissors,2_rulers,3_erasers,1_ruler,1_scissor,boy,boy,girl,,,,,,,,rulers,10095,stationeries,small,,3,9,,girl,,2_rulers,15,[],23,,3,1,$4,Female,English,No,Chrome,Windows,720,1280,7.861716666666666,
128,List1,Exp,,BoySomeMichaelErasers,,,2,8,some,,AOI1,AOI7,some,,11,33-33,Michael's,,Click on the boy that has some of Michael's erasers,1,2_erasers,girl,3_pencils,2_rulers,3_scissors,1_ruler,1_eraser,boy,boy,girl,,,,,,,,erasers,3838,stationeries,small,,1,7,,boy,,2_erasers,16,[],23,,3,1,$4,Female,English,No,Chrome,Windows,720,1280,7.861716666666666,
128,List1,Exp,,BoySomeSusanPears,,,2,8,some,,AOI1,AOI7,some,,1,33-33,Susan's,,Click on the boy that has some of Susan's pears,1,2_pears,girl,3_bananas,2_apples,3_oranges,1_apple,1_pear,boy,boy,girl,,,,,,,,pears,3033,fruit,small,,1,7,,boy,,2_pears,17,[],23,,3,1,$4,Female,English,No,Chrome,Windows,720,1280,7.861716666666666,
128,List1,Filler,,GirlFourAmyKnives,,,4,10,four,,AOI3,AOI9,four,,46,44-22,Amy's,,Click on the girl that has four of Amy's knives,1,1_spoon,girl,3_plates,4_knives,2_forks,1_spoon,1_plate,boy,boy,girl,,,,,,,,knives,3838,kitchenwares,big,,3,9,,girl,,4_knives,18,[],23,,3,1,$4,Female,English,No,Chrome,Windows,720,1280,7.861716666666666,
128,List1,Exp,,BoyAllAmyKnives,,,2,8,all,,AOI1,AOI7,all,,18,33-33,Amy's,,Click on the boy that has all of Amy's knives,1,3_knives,girl,2_plates,3_spoons,2_forks,1_plate,1_fork,boy,boy,girl,,,,,,,,knives,5276,kitchenwares,big,,1,7,,boy,,3_knives,19,[],23,,3,1,$4,Female,English,No,Chrome,Windows,720,1280,7.861716666666666,
128,List1,Exp,,GirlAllAmyPlates,,,3,9,all,,AOI4,AOI10,all,,35,44-22,Amy's,,Click on the girl that has all of Amy's plates,1,3_spoons,girl,2_forks,3_knives,2_plates,1_spoon,1_knife,boy,boy,girl,,,,,,,,plates,4026,kitchenwares,small,,4,10,,girl,,2_plates,20,[],23,,3,1,$4,Female,English,No,Chrome,Windows,720,1280,7.861716666666666,
128,List1,Exp,,GirlAllAmySpoons,,,4,10,all,,AOI3,AOI9,all,,36,44-22,Amy's,,Click on the girl that has all of Amy's spoons,1,3_plates,girl,2_knives,2_spoons,3_forks,1_plate,1_fork,boy,boy,girl,,,,,,,,spoons,3741,kitchenwares,small,,3,9,,girl,,2_spoons,21,[],23,,3,1,$4,Female,English,No,Chrome,Windows,720,1280,7.861716666666666,
128,List1,Filler,,GirlFourAmyPlates,,,3,9,four,,AOI4,AOI10,four,,47,44-22,Amy's,,Click on the girl that has four of Amy's plates,1,1_knife,girl,3_forks,2_spoons,4_plates,1_knife,1_fork,boy,boy,girl,,,,,,,,plates,3197,kitchenwares,big,,4,10,,girl,,4_plates,22,[],23,,3,1,$4,Female,English,No,Chrome,Windows,720,1280,7.861716666666666,
128,List1,Exp,,GirlThreeMichaelScissors,,,4,10,num,,AOI3,AOI9,three,,10,33-33,Michael's,,Click on the girl that has three of Michael's scissors,1,3_rulers,girl,2_erasers,3_scissors,2_pencils,1_pencil,1_eraser,boy,boy,girl,,,,,,,,scissors,3296,stationeries,big,,3,9,,girl,,3_scissors,23,[],23,,3,1,$4,Female,English,No,Chrome,Windows,720,1280,7.861716666666666,
128,List1,Filler,,GirlOneMichaelErasers,,,4,10,one,,AOI3,AOI9,one,,41,33-33,Michael's,,Click on the girl that has one of Michael's erasers,1,3_pencils,girl,3_scissors,1_eraser,3_rulers,2_erasers,0,boy,boy,girl,,,,,,,,girl with eraser,5651,stationeries,small,,3,9,,girl,,1_eraser,24,[],23,,3,1,$4,Female,English,No,Chrome,Windows,720,1280,7.861716666666666,
128,List1,Exp,,BoyThreeAmyKnives,,,1,7,num,,AOI2,AOI8,three,,14,33-33,Amy's,,Click on the boy that has three of Amy's knives,1,2_spoons,girl,3_knives,2_plates,3_forks,1_spoon,1_plate,boy,boy,girl,,,,,,,,knives,4654,kitchenwares,big,,2,8,,boy,,3_knives,25,[],23,,3,1,$4,Female,English,No,Chrome,Windows,720,1280,7.861716666666666,
128,List1,Exp,,BoyTwoAmySpoons,,,2,8,num,,AOI1,AOI7,two,,32,44-22,Amy's,,Click on the boy that has two of Amy's spoons,1,2_spoons,girl,3_knives,3_forks,2_plates,1_fork,1_knife,boy,boy,girl,,,,,,,,spoons,4404,kitchenwares,small,,1,7,,boy,,2_spoons,26,[],23,,3,1,$4,Female,English,No,Chrome,Windows,720,1280,7.861716666666666,
128,List1,Exp,,BoySomeMichaelScissors,,,1,7,some,,AOI2,AOI8,some,,12,33-33,Michael's,,Click on the boy that has some of Michael's scissors,1,3_rulers,girl,2_scissors,2_pencils,3_erasers,1_pencil,1_scissor,boy,boy,girl,,,,,,,,scissors,3574,stationeries,small,,2,8,,boy,,2_scissors,27,[],23,,3,1,$4,Female,English,No,Chrome,Windows,720,1280,7.861716666666666,
128,List1,Filler,,BoyFourSusanBananas,,,1,7,four,,AOI2,AOI8,four,,44,44-22,Susan's,,Click on the boy that has four of Susan's bananas,1,1_orange,girl,4_bananas,3_pears,2_apples,1_orange,1_pear,boy,boy,girl,,,,,,,,bananas,4076,fruit,big,,2,8,,boy,,4_bananas,28,[],23,,3,1,$4,Female,English,No,Chrome,Windows,720,1280,7.861716666666666,
128,List1,Filler,,BoyOneAmySpoons,,,1,7,one,,AOI2,AOI8,one,,39,33-33,Amy's,,Click on the boy that has one of Amy's spoons,1,3_forks,girl,1_spoon,3_plates,3_knives,2_spoons,0,boy,boy,girl,,,,,,,,boy with spoon,5627,kitchenwares,small,,2,8,,boy,,1_spoon,29,[],23,,3,1,$4,Female,English,No,Chrome,Windows,720,1280,7.861716666666666,
128,List1,Exp,,GirlThreeSusanPears,,,3,9,num,,AOI4,AOI10,three,,6,33-33,Susan's,,Click on the girl that has three of Susan's pears,1,2_oranges,girl,3_bananas,2_apples,3_pears,1_apple,1_orange,boy,boy,girl,,,,,,,,girl with pears,4560,fruit,big,,4,10,,girl,,3_pears,30,[],23,,3,1,$4,Female,English,No,Chrome,Windows,720,1280,7.861716666666666,
128,List1,Exp,,BoyAllSusanPears,,,1,7,all,,AOI2,AOI8,all,,3,33-33,Susan's,,Click on the boy that has all of Susan's pears,1,2_apples,girl,3_pears,2_bananas,3_oranges,1_apple,1_banana,boy,boy,girl,,,,,,,,boy with pears,4085,fruit,big,,2,8,,boy,,3_pears,31,[],23,,3,1,$4,Female,English,No,Chrome,Windows,720,1280,7.861716666666666,
128,List1,Exp,,GirlAllMichaelRulers,,,3,9,all,,AOI4,AOI10,all,,8,33-33,Michael's,,Click on the girl that has all of Michael's rulers,1,2_scissors,girl,3_pencils,2_erasers,3_rulers,1_eraser,1_scissor,boy,boy,girl,,,,,,,,girl with rulers,5407,stationeries,big,,4,10,,girl,,3_rulers,32,[],23,,3,1,$4,Female,English,No,Chrome,Windows,720,1280,7.861716666666666,
128,List1,Exp,,GirlSomeAmyKnives,,,4,10,some,,AOI3,AOI9,some,,15,33-33,Amy's,,Click on the girl that has some of Amy's knives,1,2_spoons,girl,3_plates,2_knives,3_forks,1_spoon,1_knife,boy,boy,girl,,,,,,,,girl with knives,5682,kitchenwares,small,,3,9,,girl,,2_knives,33,[],23,,3,1,$4,Female,English,No,Chrome,Windows,720,1280,7.861716666666666,
128,List1,Exp,,GirlSomeSusanApples,,,4,10,some,,AOI3,AOI9,some,,20,44-22,Susan's,,Click on the girl that has some of Susan's apples,1,3_pears,girl,2_bananas,3_apples,2_oranges,1_apple,1_pear,boy,boy,girl,,,,,,,,girl with apples,7326,fruit,big,,3,9,,girl,,3_apples,34,[],23,,3,1,$4,Female,English,No,Chrome,Windows,720,1280,7.861716666666666,
128,List1,Exp,,BoyTwoSusanApples,,,2,8,num,,AOI1,AOI7,two,,24,44-22,Susan's,,Click on the boy that has two of Susan's apples,1,2_apples,girl,3_pears,3_bananas,2_oranges,1_banana,1_pear,boy,boy,girl,,,,,,,,boy with apples,4370,fruit,small,,1,7,,boy,,2_apples,35,[],23,,3,1,$4,Female,English,No,Chrome,Windows,720,1280,7.861716666666666,
128,List1,Exp,,BoyAllMichaelScissors,,,2,8,all,,AOI1,AOI7,all,,7,33-33,Michael's,,Click on the boy that has all of Michael's scissors,1,3_scissors,girl,2_pencils,3_erasers,2_rulers,1_pencil,1_ruler,boy,boy,girl,,,,,,,,boy with scissors,4538,stationeries,big,,1,7,,boy,,3_scissors,36,[],23,,3,1,$4,Female,English,No,Chrome,Windows,720,1280,7.861716666666666,
128,List1,Exp,,BoySomeSusanOranges,,,1,7,some,,AOI2,AOI8,some,,2,33-33,Susan's,,Click on the boy that has some of Susan's oranges,1,3_apples,girl,2_oranges,2_bananas,3_pears,1_banana,1_orange,boy,boy,girl,,,,,,,,boy with oranges,5690,fruit,small,,2,8,,boy,,2_oranges,37,[],23,,3,1,$4,Female,English,No,Chrome,Windows,720,1280,7.861716666666666,
128,List1,Exp,,BoyTwoMichaelPencils,,,1,7,num,,AOI2,AOI8,two,,28,44-22,Michael's,,Click on the boy that has two of Michael's pencils,1,3_scissors,girl,2_pencils,2_erasers,3_rulers,1_ruler,1_scissor,boy,boy,girl,,,,,,,,boy with pencils,6087,stationeries,small,,2,8,,boy,,2_pencils,38,[],23,,3,1,$4,Female,English,No,Chrome,Windows,720,1280,7.861716666666666,
128,List1,Exp,,GirlThreeSusanOranges,,,4,10,num,,AOI3,AOI9,three,,23,44-22,Susan's,,Click on the girl that has three of Susan's oranges,1,3_apples,girl,2_pears,3_oranges,2_bananas,1_apple,1_orange,boy,boy,girl,,,,,,,,girl with oranges,5819,fruit,big,,3,9,,girl,,3_oranges,39,[],23,,3,1,$4,Female,English,No,Chrome,Windows,720,1280,7.861716666666666,
128,List1,Exp,,BoySomeAmySpoons,,,1,7,some,,AOI2,AOI8,some,,33,44-22,Amy's,,Click on the boy that has some of Amy's spoons,1,2_plates,girl,3_spoons,2_forks,3_knives,1_spoon,1_knife,boy,boy,girl,,,,,,,,boy with spoons,5334,kitchenwares,big,,2,8,,boy,,3_spoons,40,[],23,,3,1,$4,Female,English,No,Chrome,Windows,720,1280,7.861716666666666,
128,List1,Exp,,GirlAllMichaelErasers,,,4,10,all,,AOI3,AOI9,all,,26,44-22,Michael's,,Click on the girl that has all of Michael's erasers,1,3_pencils,girl,2_scissors,2_erasers,3_rulers,1_pencil,1_ruler,boy,boy,girl,,,,,,,,girl with erasers,4179,stationeries,small,,3,9,,girl,,2_erasers,41,[],23,,3,1,$4,Female,English,No,Chrome,Windows,720,1280,7.861716666666666,
128,List1,Filler,,GirlFourMichaelPencils,,,3,9,four,,AOI4,AOI10,four,,48,44-22,Michael's,,Click on the girl that has four of Michael's pencils,1,1_ruler,girl,2_erasers,3_scissors,4_pencils,1_ruler,1_scissor,boy,boy,girl,,,,,,,,girl with pencils,4537,stationeries,big,,4,10,,girl,,4_pencils,42,[],23,,3,1,$4,Female,English,No,Chrome,Windows,720,1280,7.861716666666666,
128,List1,Exp,,BoyAllSusanOranges,,,1,7,all,,AOI2,AOI8,all,,21,44-22,Susan's,,Click on the boy that has all of Susan's oranges,1,3_bananas,girl,2_oranges,3_apples,2_pears,1_apple,1_banana,boy,boy,girl,,,,,,,,boy with oranges,3973,fruit,small,,2,8,,boy,,2_oranges,43,[],23,,3,1,$4,Female,English,No,Chrome,Windows,720,1280,7.861716666666666,
128,List1,Filler,,BoyFourMichaelScissors,,,2,8,four,,AOI1,AOI7,four,,43,44-22,Michael's,,Click on the boy that has four of Michael's scissors,1,4_scissors,girl,1_pencil,2_rulers,3_erasers,1_pencil,1_eraser,boy,boy,girl,,,,,,,,boy with scissors,3349,stationeries,big,,1,7,,boy,,4_scissors,44,[],23,,3,1,$4,Female,English,No,Chrome,Windows,720,1280,7.861716666666666,
128,List1,Filler,,BoyOneMichaelRulers,,,1,7,one,,AOI2,AOI8,one,,40,33-33,Michael's,,Click on the boy that has one of Michael's rulers,1,3_erasers,girl,1_ruler,3_pencils,3_scissors,2_scissors,0,boy,boy,girl,,,,,,,,boy with ruler,4482,stationeries,small,,2,8,,boy,,1_ruler,45,[],23,,3,1,$4,Female,English,No,Chrome,Windows,720,1280,7.861716666666666,
128,List1,Exp,,GirlSomeAmyForks,,,4,10,some,,AOI3,AOI9,some,,34,44-22,Amy's,,Click on the girl that has some of Amy's forks,1,2_spoons,girl,3_plates,3_forks,2_knives,1_fork,1_plate,boy,boy,girl,,,,,,,,girl with forks,4657,kitchenwares,big,,3,9,,girl,,3_forks,46,[],23,,3,1,$4,Female,English,No,Chrome,Windows,720,1280,7.861716666666666,
128,List1,Exp,,GirlSomeAmyPlates,,,3,9,some,,AOI4,AOI10,some,,16,33-33,Amy's,,Click on the girl that has some of Amy's plates,1,2_forks,girl,3_knives,3_spoons,2_plates,1_fork,1_plate,boy,boy,girl,,,,,,,,girl with plates,5238,kitchenwares,small,,4,10,,girl,,2_plates,47,[],23,,3,1,$4,Female,English,No,Chrome,Windows,720,1280,7.861716666666666,
128,List1,Exp,,GirlTwoAmyForks,,,3,9,num,,AOI4,AOI10,two,,13,33-33,Amy's,,Click on the girl that has two of Amy's forks,1,2_knives,girl,3_spoons,3_plates,2_forks,1_fork,1_knife,boy,boy,girl,,,,,,,,girl with forks,5057,kitchenwares,small,,4,10,,girl,,2_forks,48,[],23,,3,1,$4,Female,English,No,Chrome,Windows,720,1280,7.861716666666666,
124,List1,Prac,Fruit_Susan_Monday,,Fruit_residue,1,2,,,two,AOI1,AOI7,,two,1,33-33,Susan,Click on the boy that has two of Susan's apples,,,2_apples,girl,3_bananas,2_pears,3_oranges,1_apple,1_pear,boy,boy,girl,apples,D3_pears,D3_bananas,D3_oranges,clicking practice,,BoyTwoSusanapples,"['AOI10', 'AOI7', 'AOI7', 'AOI7']",,fruit,,small,1,,boy,,2_apples,,,[],46,,2,1,yes,Female,English,no,Chrome,Windows,864,1536,10.18915,
124,List1,Prac,Fruit_Susan_Tuesday,,Slience,2,1,,,some,AOI3,AOI9,,some,2,44-22,Susan,Click on the girl that has some of Susan's apples,,,3_bananas,girl,2_pears,3_apples,2_oranges,1_apple,1_banana,boy,boy,girl,apples,D2_pears,D4_bananas,D2_oranges,clicking practice,,GirlSomeSusanapples,"['AOI9', 'AOI9', 'AOI9', 'AOI9']",,fruit,,small,3,,girl,,3_apples,,,[],46,,2,1,yes,Female,English,no,Chrome,Windows,864,1536,10.18915,
124,List1,Prac,Stationary_Michael_Monday,,Residue_stationary,3,4,,,num,AOI1,AOI7,,three,3,33-33,Michael,Click on the boy that has three of Michael's scissors,,,3_scissors,girl,2_pencils,3_erasers,2_rulers,1_pencil,1_ruler,boy,boy,girl,erasers,D3_pencils,D3_erasers,D3_rulers,clicking practice,,BoyThreeMichaelscissors,"['AOI8', 'AOI8', 'AOI7', 'AOI7']",,office supplies,,big,1,,boy,,3_scissors,,,[],46,,2,1,yes,Female,English,no,Chrome,Windows,864,1536,10.18915,
124,List1,Prac,Stationary_Michael_Tuesday,,Residue_stationary,4,3,,,all,AOI4,AOI10,,all,4,44-22,Michael,Click on the girl that has all of Michael's rulers,,,3_pencils,girl,2_scissors,3_erasers,2_rulers,1_pencil,1_eraser,boy,boy,girl,rulers,D4_pencils,D4_erasers,D2_rulers,clicking practice,,GirlAllMichaelrulers,"['AOI8', 'AOI9', 'AOI10', 'AOI10']",,office supplies,,small,4,,girl,,2_rulers,,,[],46,,2,1,yes,Female,English,no,Chrome,Windows,864,1536,10.18915,
124,List1,Prac,kitchware_Amy_Monday,,Residue_kitchen,,4,,,num,AOI3,AOI9,,three,5,44-22,Amy,Click on the girl that has three of Amy's knives,,,2_spoons,girl,3_forks,3_knives,2_plates,1_fork,1_knife,boy,boy,girl,knives,D4_forks,D2_spoons,D4_knives,production practice,1,GirlThreeAmyknives,girl with three knives,,kitchenwares,,big,3,,girl,,3_knives,,,[],46,,2,1,yes,Female,English,no,Chrome,Windows,864,1536,10.18915,
124,List1,Prac,kitchware_Amy_Tuesday,,Slience,,2,,,some,AOI4,AOI10,,some,6,33-33,Amy,Click on the girl that has some of Amy's forks,,,3_spoons,girl,2_knives,3_plates,2_forks,1_fork,1_knife,boy,boy,girl,forks,D3_forks,D3_spoons,D3_knives,production practice,2,GirlSomeAmyforks,girl with forks,,kitchenwares,,big,4,,girl,,2_forks,,,[],46,,2,1,yes,Female,English,no,Chrome,Windows,864,1536,10.18915,
124,List1,Filler,,GirlFourMichaelPencils,,,3,9,four,,AOI4,AOI10,four,,48,44-22,Michael's,,Click on the girl that has four of Michael's pencils,1,1_ruler,girl,2_erasers,3_scissors,4_pencils,1_ruler,1_scissor,boy,boy,girl,,,,,,,,person with all of the pencils,14037,stationeries,big,,4,10,,girl,,4_pencils,1,[],46,,2,1,yes,Female,English,no,Chrome,Windows,864,1536,10.18915,
124,List1,Exp,,GirlSomeAmyKnives,,,4,10,some,,AOI3,AOI9,some,,15,33-33,Amy's,,Click on the girl that has some of Amy's knives,1,2_spoons,girl,3_plates,2_knives,3_forks,1_spoon,1_knife,boy,boy,girl,,,,,,,,girl with forks.,7393,kitchenwares,small,,3,9,,girl,,2_knives,2,[],46,,2,1,yes,Female,English,no,Chrome,Windows,864,1536,10.18915,
124,List1,Exp,,GirlAllMichaelRulers,,,3,9,all,,AOI4,AOI10,all,,8,33-33,Michael's,,Click on the girl that has all of Michael's rulers,1,2_scissors,girl,3_pencils,2_erasers,3_rulers,1_eraser,1_scissor,boy,boy,girl,,,,,,,,person with all the rulers,11216,stationeries,big,,4,10,,girl,,3_rulers,3,[],46,,2,1,yes,Female,English,no,Chrome,Windows,864,1536,10.18915,
124,List1,Exp,,GirlTwoSusanBananas,,,3,9,num,,AOI4,AOI10,two,,5,33-33,Susan's,,Click on the girl that has two of Susan's bananas,1,2_pears,girl,3_apples,3_oranges,2_bananas,1_banana,1_pear,boy,boy,girl,,,,,,,,girl with bananas,11188,fruit,small,,4,10,,girl,,2_bananas,4,[],46,,2,1,yes,Female,English,no,Chrome,Windows,864,1536,10.18915,
124,List1,Exp,,GirlTwoMichaelRulers,,,4,10,num,,AOI3,AOI9,two,,9,33-33,Michael's,,Click on the girl that has two of Michael's rulers,1,3_pencils,girl,2_scissors,2_rulers,3_erasers,1_ruler,1_scissor,boy,boy,girl,,,,,,,,girl with two items,15804,stationeries,small,,3,9,,girl,,2_rulers,5,[],46,,2,1,yes,Female,English,no,Chrome,Windows,864,1536,10.18915,
124,List1,Exp,,GirlAllAmyPlates,,,3,9,all,,AOI4,AOI10,all,,35,44-22,Amy's,,Click on the girl that has all of Amy's plates,1,3_spoons,girl,2_forks,3_knives,2_plates,1_spoon,1_knife,boy,boy,girl,,,,,,,,person with plates,12186,kitchenwares,small,,4,10,,girl,,2_plates,6,[],46,,2,1,yes,Female,English,no,Chrome,Windows,864,1536,10.18915,
124,List1,Exp,,BoyTwoMichaelPencils,,,1,7,num,,AOI2,AOI8,two,,28,44-22,Michael's,,Click on the boy that has two of Michael's pencils,1,3_scissors,girl,2_pencils,2_erasers,3_rulers,1_ruler,1_scissor,boy,boy,girl,,,,,,,,boy with all the pencils,7072,stationeries,small,,2,8,,boy,,2_pencils,7,[],46,,2,1,yes,Female,English,no,Chrome,Windows,864,1536,10.18915,
124,List1,Exp,,BoySomeSusanOranges,,,1,7,some,,AOI2,AOI8,some,,2,33-33,Susan's,,Click on the boy that has some of Susan's oranges,1,3_apples,girl,2_oranges,2_bananas,3_pears,1_banana,1_orange,boy,boy,girl,,,,,,,,boy with two items,9056,fruit,small,,2,8,,boy,,2_oranges,8,[],46,,2,1,yes,Female,English,no,Chrome,Windows,864,1536,10.18915,
124,List1,Exp,,GirlAllMichaelErasers,,,4,10,all,,AOI3,AOI9,all,,26,44-22,Michael's,,Click on the girl that has all of Michael's erasers,1,3_pencils,girl,2_scissors,2_erasers,3_rulers,1_pencil,1_ruler,boy,boy,girl,,,,,,,,girl with erasers,8928,stationeries,small,,3,9,,girl,,2_erasers,9,[],46,,2,1,yes,Female,English,no,Chrome,Windows,864,1536,10.18915,
124,List1,Filler,,BoyFourSusanBananas,,,1,7,four,,AOI2,AOI8,four,,44,44-22,Susan's,,Click on the boy that has four of Susan's bananas,1,1_orange,girl,4_bananas,3_pears,2_apples,1_orange,1_pear,boy,boy,girl,,,,,,,,person with four items,8919,fruit,big,,2,8,,boy,,4_bananas,10,[],46,,2,1,yes,Female,English,no,Chrome,Windows,864,1536,10.18915,
124,List1,Exp,,GirlSomeAmyPlates,,,3,9,some,,AOI4,AOI10,some,,16,33-33,Amy's,,Click on the girl that has some of Amy's plates,1,2_forks,girl,3_knives,3_spoons,2_plates,1_fork,1_plate,boy,boy,girl,,,,,,,,girl with plates,4856,kitchenwares,small,,4,10,,girl,,2_plates,11,[],46,,2,1,yes,Female,English,no,Chrome,Windows,864,1536,10.18915,
124,List1,Exp,,GirlSomeMichaelRulers,,,3,9,some,,AOI4,AOI10,some,,30,44-22,Michael's,,Click on the girl that has some of Michael's rulers,1,3_erasers,girl,2_pencils,2_scissors,3_rulers,1_ruler,1_eraser,boy,boy,girl,,,,,,,,girl with rulers,7568,stationeries,big,,4,10,,girl,,3_rulers,12,[],46,,2,1,yes,Female,English,no,Chrome,Windows,864,1536,10.18915,
124,List1,Filler,,BoyOneAmyPlates,,,2,8,one,,AOI1,AOI7,one,,38,33-33,Amy's,,Click on the boy that has one of Amy's plates,1,1_plate,girl,3_knives,3_forks,3_spoons,2_plates,0,boy,boy,girl,,,,,,,,boy with one item,6328,kitchenwares,small,,1,7,,boy,,1_plate,13,[],46,,2,1,yes,Female,English,no,Chrome,Windows,864,1536,10.18915,
124,List1,Exp,,BoyTwoAmySpoons,,,2,8,num,,AOI1,AOI7,two,,32,44-22,Amy's,,Click on the boy that has two of Amy's spoons,1,2_spoons,girl,3_knives,3_forks,2_plates,1_fork,1_knife,boy,boy,girl,,,,,,,,boy with spoons,7088,kitchenwares,small,,1,7,,boy,,2_spoons,14,[],46,,2,1,yes,Female,English,no,Chrome,Windows,864,1536,10.18915,
124,List1,Exp,,BoyThreeAmyKnives,,,1,7,num,,AOI2,AOI8,three,,14,33-33,Amy's,,Click on the boy that has three of Amy's knives,1,2_spoons,girl,3_knives,2_plates,3_forks,1_spoon,1_plate,boy,boy,girl,,,,,,,,boy with knives,7511,kitchenwares,big,,2,8,,boy,,3_knives,15,[],46,,2,1,yes,Female,English,no,Chrome,Windows,864,1536,10.18915,
124,List1,Exp,,GirlSomeAmyForks,,,4,10,some,,AOI3,AOI9,some,,34,44-22,Amy's,,Click on the girl that has some of Amy's forks,1,2_spoons,girl,3_plates,3_forks,2_knives,1_fork,1_plate,boy,boy,girl,,,,,,,,person with forks,5984,kitchenwares,big,,3,9,,girl,,3_forks,16,[],46,,2,1,yes,Female,English,no,Chrome,Windows,864,1536,10.18915,
124,List1,Filler,,BoyOneMichaelRulers,,,1,7,one,,AOI2,AOI8,one,,40,33-33,Michael's,,Click on the boy that has one of Michael's rulers,1,3_erasers,girl,1_ruler,3_pencils,3_scissors,2_scissors,0,boy,boy,girl,,,,,,,,person with a ruler,7224,stationeries,small,,2,8,,boy,,1_ruler,17,[],46,,2,1,yes,Female,English,no,Chrome,Windows,864,1536,10.18915,
124,List1,Exp,,BoySomeSusanPears,,,2,8,some,,AOI1,AOI7,some,,1,33-33,Susan's,,Click on the boy that has some of Susan's pears,1,2_pears,girl,3_bananas,2_apples,3_oranges,1_apple,1_pear,boy,boy,girl,,,,,,,,boy with pears,4696,fruit,small,,1,7,,boy,,2_pears,18,[],46,,2,1,yes,Female,English,no,Chrome,Windows,864,1536,10.18915,
124,List1,Filler,,GirlOneMichaelErasers,,,4,10,one,,AOI3,AOI9,one,,41,33-33,Michael's,,Click on the girl that has one of Michael's erasers,1,3_pencils,girl,3_scissors,1_eraser,3_rulers,2_erasers,0,boy,boy,girl,,,,,,,,person with one item,10608,stationeries,small,,3,9,,girl,,1_eraser,19,[],46,,2,1,yes,Female,English,no,Chrome,Windows,864,1536,10.18915,
124,List1,Exp,,GirlAllSusanBananas,,,4,10,all,,AOI3,AOI9,all,,4,33-33,Susan's,,Click on the girl that has all of Susan's bananas,1,2_pears,girl,3_apples,3_bananas,2_oranges,1_orange,1_pear,boy,boy,girl,,,,,,,,girl with bananas,5352,fruit,big,,3,9,,girl,,3_bananas,20,[],46,,2,1,yes,Female,English,no,Chrome,Windows,864,1536,10.18915,
124,List1,Filler,,GirlFourAmyPlates,,,3,9,four,,AOI4,AOI10,four,,47,44-22,Amy's,,Click on the girl that has four of Amy's plates,1,1_knife,girl,3_forks,2_spoons,4_plates,1_knife,1_fork,boy,boy,girl,,,,,,,,girl wth plates,5600,kitchenwares,big,,4,10,,girl,,4_plates,21,[],46,,2,1,yes,Female,English,no,Chrome,Windows,864,1536,10.18915,
124,List1,Filler,,GirlFourSusanOranges,,,4,10,four,,AOI3,AOI9,four,,45,44-22,Susan's,,Click on the girl that has four of Susan's oranges,1,2_pears,girl,3_apples,4_oranges,1_banana,1_banana,1_apple,boy,boy,girl,,,,,,,,person with four items,9680,fruit,big,,3,9,,girl,,4_oranges,22,[],46,,2,1,yes,Female,English,no,Chrome,Windows,864,1536,10.18915,
124,List1,Exp,,BoyThreeAmyPlates,,,2,8,num,,AOI1,AOI7,three,,31,44-22,Amy's,,Click on the boy that has three of Amy's plates,1,3_plates,girl,2_forks,3_spoons,2_knives,1_spoon,1_plate,boy,boy,girl,,,,,,,,boy with plates,3920,kitchenwares,big,,1,7,,boy,,3_plates,23,[],46,,2,1,yes,Female,English,no,Chrome,Windows,864,1536,10.18915,
124,List1,Exp,,BoyTwoSusanApples,,,2,8,num,,AOI1,AOI7,two,,24,44-22,Susan's,,Click on the boy that has two of Susan's apples,1,2_apples,girl,3_pears,3_bananas,2_oranges,1_banana,1_pear,boy,boy,girl,,,,,,,,boy with apples,11248,fruit,small,,1,7,,boy,,2_apples,24,[],46,,2,1,yes,Female,English,no,Chrome,Windows,864,1536,10.18915,
124,List1,Exp,,GirlSomeSusanBananas,,,3,9,some,,AOI4,AOI10,some,,19,44-22,Susan's,,Click on the girl that has some of Susan's bananas,1,3_oranges,girl,2_apples,2_pears,3_bananas,1_banana,1_orange,boy,boy,girl,,,,,,,,girl with bananas,7193,fruit,big,,4,10,,girl,,3_bananas,25,[],46,,2,1,yes,Female,English,no,Chrome,Windows,864,1536,10.18915,
124,List1,Filler,,BoyOneAmySpoons,,,1,7,one,,AOI2,AOI8,one,,39,33-33,Amy's,,Click on the boy that has one of Amy's spoons,1,3_forks,girl,1_spoon,3_plates,3_knives,2_spoons,0,boy,boy,girl,,,,,,,,boy with a spoon,7479,kitchenwares,small,,2,8,,boy,,1_spoon,26,[],46,,2,1,yes,Female,English,no,Chrome,Windows,864,1536,10.18915,
124,List1,Exp,,BoyAllMichaelScissors,,,2,8,all,,AOI1,AOI7,all,,7,33-33,Michael's,,Click on the boy that has all of Michael's scissors,1,3_scissors,girl,2_pencils,3_erasers,2_rulers,1_pencil,1_ruler,boy,boy,girl,,,,,,,,boy with three items.,9384,stationeries,big,,1,7,,boy,,3_scissors,27,[],46,,2,1,yes,Female,English,no,Chrome,Windows,864,1536,10.18915,
124,List1,Exp,,BoySomeMichaelPencils,,,2,8,some,,AOI1,AOI7,some,,29,44-22,Michael's,,Click on the boy that has some of Michael's pencils,1,3_pencils,girl,2_erasers,3_scissors,2_rulers,1_pencil,1_scissor,boy,boy,girl,,,,,,,,boy with pencils,6280,stationeries,big,,1,7,,boy,,3_pencils,28,[],46,,2,1,yes,Female,English,no,Chrome,Windows,864,1536,10.18915,
124,List1,Filler,,GirlFourAmyKnives,,,4,10,four,,AOI3,AOI9,four,,46,44-22,Amy's,,Click on the girl that has four of Amy's knives,1,1_spoon,girl,3_plates,4_knives,2_forks,1_spoon,1_plate,boy,boy,girl,,,,,,,,girl with knives,5416,kitchenwares,big,,3,9,,girl,,4_knives,29,[],46,,2,1,yes,Female,English,no,Chrome,Windows,864,1536,10.18915,
124,List1,Exp,,BoyAllAmyKnives,,,2,8,all,,AOI1,AOI7,all,,18,33-33,Amy's,,Click on the boy that has all of Amy's knives,1,3_knives,girl,2_plates,3_spoons,2_forks,1_plate,1_fork,boy,boy,girl,,,,,,,,boy with knives,13536,kitchenwares,big,,1,7,,boy,,3_knives,30,[],46,,2,1,yes,Female,English,no,Chrome,Windows,864,1536,10.18915,
124,List1,Exp,,BoyAllSusanPears,,,1,7,all,,AOI2,AOI8,all,,3,33-33,Susan's,,Click on the boy that has all of Susan's pears,1,2_apples,girl,3_pears,2_bananas,3_oranges,1_apple,1_banana,boy,boy,girl,,,,,,,,person with pears,7745,fruit,big,,2,8,,boy,,3_pears,31,[],46,,2,1,yes,Female,English,no,Chrome,Windows,864,1536,10.18915,
124,List1,Exp,,BoyAllSusanApples,,,2,8,all,,AOI1,AOI7,all,,22,44-22,Susan's,,Click on the boy that has all of Susan's apples,1,2_apples,girl,3_pears,3_oranges,2_bananas,1_orange,1_pear,boy,boy,girl,,,,,,,,boy with apples,8992,fruit,small,,1,7,,boy,,2_apples,32,[],46,,2,1,yes,Female,English,no,Chrome,Windows,864,1536,10.18915,
124,List1,Exp,,GirlTwoAmyForks,,,3,9,num,,AOI4,AOI10,two,,13,33-33,Amy's,,Click on the girl that has two of Amy's forks,1,2_knives,girl,3_spoons,3_plates,2_forks,1_fork,1_knife,boy,boy,girl,,,,,,,,girl with forks,4272,kitchenwares,small,,4,10,,girl,,2_forks,33,[],46,,2,1,yes,Female,English,no,Chrome,Windows,864,1536,10.18915,
124,List1,Exp,,GirlThreeMichaelScissors,,,4,10,num,,AOI3,AOI9,three,,10,33-33,Michael's,,Click on the girl that has three of Michael's scissors,1,3_rulers,girl,2_erasers,3_scissors,2_pencils,1_pencil,1_eraser,boy,boy,girl,,,,,,,,girl with two items,4896,stationeries,big,,3,9,,girl,,3_scissors,34,[],46,,2,1,yes,Female,English,no,Chrome,Windows,864,1536,10.18915,
124,List1,Exp,,BoySomeMichaelErasers,,,2,8,some,,AOI1,AOI7,some,,11,33-33,Michael's,,Click on the boy that has some of Michael's erasers,1,2_erasers,girl,3_pencils,2_rulers,3_scissors,1_ruler,1_eraser,boy,boy,girl,,,,,,,,boy with two items,6240,stationeries,small,,1,7,,boy,,2_erasers,35,[],46,,2,1,yes,Female,English,no,Chrome,Windows,864,1536,10.18915,
124,List1,Exp,,BoyThreeMichaelErasers,,,1,7,num,,AOI2,AOI8,three,,27,44-22,Michael's,,Click on the boy that has three of Michael's erasers,1,2_rulers,girl,3_erasers,2_scissors,3_pencils,1_pencil,1_eraser,boy,boy,girl,,,,,,,,boy with erasers,4872,stationeries,big,,2,8,,boy,,3_erasers,36,[],46,,2,1,yes,Female,English,no,Chrome,Windows,864,1536,10.18915,
124,List1,Exp,,BoySomeAmySpoons,,,1,7,some,,AOI2,AOI8,some,,33,44-22,Amy's,,Click on the boy that has some of Amy's spoons,1,2_plates,girl,3_spoons,2_forks,3_knives,1_spoon,1_knife,boy,boy,girl,,,,,,,,boy with spoons,6599,kitchenwares,big,,2,8,,boy,,3_spoons,37,[],46,,2,1,yes,Female,English,no,Chrome,Windows,864,1536,10.18915,
124,List1,Exp,,GirlThreeSusanPears,,,3,9,num,,AOI4,AOI10,three,,6,33-33,Susan's,,Click on the girl that has three of Susan's pears,1,2_oranges,girl,3_bananas,2_apples,3_pears,1_apple,1_orange,boy,boy,girl,,,,,,,,girl with three items,4312,fruit,big,,4,10,,girl,,3_pears,38,[],46,,2,1,yes,Female,English,no,Chrome,Windows,864,1536,10.18915,
124,List1,Exp,,GirlAllAmySpoons,,,4,10,all,,AOI3,AOI9,all,,36,44-22,Amy's,,Click on the girl that has all of Amy's spoons,1,3_plates,girl,2_knives,2_spoons,3_forks,1_plate,1_fork,boy,boy,girl,,,,,,,,girl with spoons,8864,kitchenwares,small,,3,9,,girl,,2_spoons,39,[],46,,2,1,yes,Female,English,no,Chrome,Windows,864,1536,10.18915,
124,List1,Filler,,GirlOneSusanPears,,,3,9,one,,AOI4,AOI10,one,,42,33-33,Susan's,,Click on the girl that has one of Susan's pears,1,3_bananas,girl,3_oranges,3_apples,1_pear,2_pears,0,boy,boy,girl,,,,,,,,person with one item,9104,fruit,small,,4,10,,girl,,1_pear,40,[],46,,2,1,yes,Female,English,no,Chrome,Windows,864,1536,10.18915,
124,List1,Exp,,BoyAllSusanOranges,,,1,7,all,,AOI2,AOI8,all,,21,44-22,Susan's,,Click on the boy that has all of Susan's oranges,1,3_bananas,girl,2_oranges,3_apples,2_pears,1_apple,1_banana,boy,boy,girl,,,,,,,,boy with oranges,6320,fruit,small,,2,8,,boy,,2_oranges,41,[],46,,2,1,yes,Female,English,no,Chrome,Windows,864,1536,10.18915,
124,List1,Filler,,BoyFourMichaelScissors,,,2,8,four,,AOI1,AOI7,four,,43,44-22,Michael's,,Click on the boy that has four of Michael's scissors,1,4_scissors,girl,1_pencil,2_rulers,3_erasers,1_pencil,1_eraser,boy,boy,girl,,,,,,,,person with four items,7304,stationeries,big,,1,7,,boy,,4_scissors,42,[],46,,2,1,yes,Female,English,no,Chrome,Windows,864,1536,10.18915,
124,List1,Exp,,BoySomeMichaelScissors,,,1,7,some,,AOI2,AOI8,some,,12,33-33,Michael's,,Click on the boy that has some of Michael's scissors,1,3_rulers,girl,2_scissors,2_pencils,3_erasers,1_pencil,1_scissor,boy,boy,girl,,,,,,,,boy with scissors,6687,stationeries,small,,2,8,,boy,,2_scissors,43,[],46,,2,1,yes,Female,English,no,Chrome,Windows,864,1536,10.18915,
124,List1,Exp,,GirlThreeSusanOranges,,,4,10,num,,AOI3,AOI9,three,,23,44-22,Susan's,,Click on the girl that has three of Susan's oranges,1,3_apples,girl,2_pears,3_oranges,2_bananas,1_apple,1_orange,boy,boy,girl,,,,,,,,girl with oranges,5161,fruit,big,,3,9,,girl,,3_oranges,44,[],46,,2,1,yes,Female,English,no,Chrome,Windows,864,1536,10.18915,
124,List1,Exp,,GirlSomeSusanApples,,,4,10,some,,AOI3,AOI9,some,,20,44-22,Susan's,,Click on the girl that has some of Susan's apples,1,3_pears,girl,2_bananas,3_apples,2_oranges,1_apple,1_pear,boy,boy,girl,,,,,,,,person with apples,6456,fruit,big,,3,9,,girl,,3_apples,45,[],46,,2,1,yes,Female,English,no,Chrome,Windows,864,1536,10.18915,
124,List1,Exp,,BoyAllAmyForks,,,1,7,all,,AOI2,AOI8,all,,17,33-33,Amy's,,Click on the boy that has all of Amy's forks,1,2_spoons,girl,3_forks,2_knives,3_plates,1_spoon,1_knife,boy,boy,girl,,,,,,,,boy with forks,4720,kitchenwares,big,,2,8,,boy,,3_forks,46,[],46,,2,1,yes,Female,English,no,Chrome,Windows,864,1536,10.18915,
124,List1,Exp,,GirlAllMichaelPencils,,,3,9,all,,AOI4,AOI10,all,,25,44-22,Michael's,,Click on the girl that has all of Michael's pencils,1,3_erasers,girl,2_rulers,3_scissors,2_pencils,1_eraser,1_scissor,boy,boy,girl,,,,,,,,girl with pencils,4023,stationeries,small,,4,10,,girl,,2_pencils,47,[],46,,2,1,yes,Female,English,no,Chrome,Windows,864,1536,10.18915,
124,List1,Filler,,BoyOneSusanApples,,,2,8,one,,AOI1,AOI7,one,,37,33-33,Susan's,,Click on the boy that has one of Susan's apples,1,1_apple,girl,3_pears,3_bananas,3_oranges,2_apples,0,boy,boy,girl,,,,,,,,person with one item,6207,fruit,small,,1,7,,boy,,1_apple,48,[],46,,2,1,yes,Female,English,no,Chrome,Windows,864,1536,10.18915,
101,List1,Prac,Fruit_Susan_Monday,,Fruit_residue,1,2,,,two,AOI1,AOI7,,two,1,33-33,Susan,Click on the boy that has two of Susan's apples,,,2_apples,girl,3_bananas,2_pears,3_oranges,1_apple,1_pear,boy,boy,girl,apples,D3_pears,D3_bananas,D3_oranges,clicking practice,,BoyTwoSusanapples,"['AOI7', 'AOI8', 'AOI7', 'AOI7']",,fruit,,small,1,,boy,,2_apples,,,[],64,,2,2,3.00,Female,English,no,Chrome,Windows,1080,1920,31.9665,
101,List1,Prac,Fruit_Susan_Tuesday,,Slience,2,1,,,some,AOI3,AOI9,,some,2,44-22,Susan,Click on the girl that has some of Susan's apples,,,3_bananas,girl,2_pears,3_apples,2_oranges,1_apple,1_banana,boy,boy,girl,apples,D2_pears,D4_bananas,D2_oranges,clicking practice,,GirlSomeSusanapples,"['AOI9', 'AOI9', 'AOI10', 'AOI9']",,fruit,,small,3,,girl,,3_apples,,,[],64,,2,2,3.00,Female,English,no,Chrome,Windows,1080,1920,31.9665,
101,List1,Prac,Stationary_Michael_Monday,,Residue_stationary,3,4,,,num,AOI1,AOI7,,three,3,33-33,Michael,Click on the boy that has three of Michael's scissors,,,3_scissors,girl,2_pencils,3_erasers,2_rulers,1_pencil,1_ruler,boy,boy,girl,erasers,D3_pencils,D3_erasers,D3_rulers,clicking practice,,BoyThreeMichaelscissors,"['AOI7', 'AOI8', 'AOI7', 'AOI7']",,office supplies,,big,1,,boy,,3_scissors,,,[],64,,2,2,3.00,Female,English,no,Chrome,Windows,1080,1920,31.9665,
101,List1,Prac,Stationary_Michael_Tuesday,,Residue_stationary,4,3,,,all,AOI4,AOI10,,all,4,44-22,Michael,Click on the girl that has all of Michael's rulers,,,3_pencils,girl,2_scissors,3_erasers,2_rulers,1_pencil,1_eraser,boy,boy,girl,rulers,D4_pencils,D4_erasers,D2_rulers,clicking practice,,GirlAllMichaelrulers,"['AOI10', 'AOI9', 'AOI10', 'AOI10']",,office supplies,,small,4,,girl,,2_rulers,,,[],64,,2,2,3.00,Female,English,no,Chrome,Windows,1080,1920,31.9665,
101,List1,Prac,kitchware_Amy_Monday,,Residue_kitchen,,4,,,num,AOI3,AOI9,,three,5,44-22,Amy,Click on the girl that has three of Amy's knives,,,2_spoons,girl,3_forks,3_knives,2_plates,1_fork,1_knife,boy,boy,girl,knives,D4_forks,D2_spoons,D4_knives,production practice,1,GirlThreeAmyknives,girl with all of the knifes,,kitchenwares,,big,3,,girl,,3_knives,,,[],64,,2,2,3.00,Female,English,no,Chrome,Windows,1080,1920,31.9665,
101,List1,Prac,kitchware_Amy_Tuesday,,Slience,,2,,,some,AOI4,AOI10,,some,6,33-33,Amy,Click on the girl that has some of Amy's forks,,,3_spoons,girl,2_knives,3_plates,2_forks,1_fork,1_knife,boy,boy,girl,forks,D3_forks,D3_spoons,D3_knives,production practice,2,GirlSomeAmyforks,girl who has the forks,,kitchenwares,,big,4,,girl,,2_forks,,,[],64,,2,2,3.00,Female,English,no,Chrome,Windows,1080,1920,31.9665,
101,List1,Exp,,BoyAllAmyKnives,,,2,8,all,,AOI1,AOI7,all,,18,33-33,Amy's,,Click on the boy that has all of Amy's knives,1,3_knives,girl,2_plates,3_spoons,2_forks,1_plate,1_fork,boy,boy,girl,,,,,,,,boy who has all the knifes.,47290,kitchenwares,big,,1,7,,boy,,3_knives,1,[],64,,2,2,3.00,Female,English,no,Chrome,Windows,1080,1920,31.9665,
101,List1,Exp,,BoyThreeAmyKnives,,,1,7,num,,AOI2,AOI8,three,,14,33-33,Amy's,,Click on the boy that has three of Amy's knives,1,2_spoons,girl,3_knives,2_plates,3_forks,1_spoon,1_plate,boy,boy,girl,,,,,,,,boy who has all the knives,28462,kitchenwares,big,,2,8,,boy,,3_knives,2,[],64,,2,2,3.00,Female,English,no,Chrome,Windows,1080,1920,31.9665,
101,List1,Filler,,BoyFourMichaelScissors,,,2,8,four,,AOI1,AOI7,four,,43,44-22,Michael's,,Click on the boy that has four of Michael's scissors,1,4_scissors,girl,1_pencil,2_rulers,3_erasers,1_pencil,1_eraser,boy,boy,girl,,,,,,,,boy who has all the scissors,26827,stationeries,big,,1,7,,boy,,4_scissors,3,[],64,,2,2,3.00,Female,English,no,Chrome,Windows,1080,1920,31.9665,
101,List1,Filler,,GirlFourMichaelPencils,,,3,9,four,,AOI4,AOI10,four,,48,44-22,Michael's,,Click on the girl that has four of Michael's pencils,1,1_ruler,girl,2_erasers,3_scissors,4_pencils,1_ruler,1_scissor,boy,boy,girl,,,,,,,,girl who has all the pencils,22134,stationeries,big,,4,10,,girl,,4_pencils,4,[],64,,2,2,3.00,Female,English,no,Chrome,Windows,1080,1920,31.9665,
101,List1,Exp,,BoySomeMichaelErasers,,,2,8,some,,AOI1,AOI7,some,,11,33-33,Michael's,,Click on the boy that has some of Michael's erasers,1,2_erasers,girl,3_pencils,2_rulers,3_scissors,1_ruler,1_eraser,boy,boy,girl,,,,,,,,boy who has two of the erasers,26337,stationeries,small,,1,7,,boy,,2_erasers,5,[],64,,2,2,3.00,Female,English,no,Chrome,Windows,1080,1920,31.9665,
101,List1,Exp,,BoySomeMichaelScissors,,,1,7,some,,AOI2,AOI8,some,,12,33-33,Michael's,,Click on the boy that has some of Michael's scissors,1,3_rulers,girl,2_scissors,2_pencils,3_erasers,1_pencil,1_scissor,boy,boy,girl,,,,,,,,boy who has two of the scissors,24530,stationeries,small,,2,8,,boy,,2_scissors,6,[],64,,2,2,3.00,Female,English,no,Chrome,Windows,1080,1920,31.9665,
101,List1,Exp,,BoyThreeMichaelErasers,,,1,7,num,,AOI2,AOI8,three,,27,44-22,Michael's,,Click on the boy that has three of Michael's erasers,1,2_rulers,girl,3_erasers,2_scissors,3_pencils,1_pencil,1_eraser,boy,boy,girl,,,,,,,,boy who has 3 of the erasers,21013,stationeries,big,,2,8,,boy,,3_erasers,7,[],64,,2,2,3.00,Female,English,no,Chrome,Windows,1080,1920,31.9665,
101,List1,Exp,,GirlAllMichaelRulers,,,3,9,all,,AOI4,AOI10,all,,8,33-33,Michael's,,Click on the girl that has all of Michael's rulers,1,2_scissors,girl,3_pencils,2_erasers,3_rulers,1_eraser,1_scissor,boy,boy,girl,,,,,,,,girl who has all the rulers,23955,stationeries,big,,4,10,,girl,,3_rulers,8,[],64,,2,2,3.00,Female,English,no,Chrome,Windows,1080,1920,31.9665,
101,List1,Filler,,GirlFourAmyPlates,,,3,9,four,,AOI4,AOI10,four,,47,44-22,Amy's,,Click on the girl that has four of Amy's plates,1,1_knife,girl,3_forks,2_spoons,4_plates,1_knife,1_fork,boy,boy,girl,,,,,,,,girl who has all the plates,23728,kitchenwares,big,,4,10,,girl,,4_plates,9,[],64,,2,2,3.00,Female,English,no,Chrome,Windows,1080,1920,31.9665,
101,List1,Exp,,GirlSomeAmyPlates,,,3,9,some,,AOI4,AOI10,some,,16,33-33,Amy's,,Click on the girl that has some of Amy's plates,1,2_forks,girl,3_knives,3_spoons,2_plates,1_fork,1_plate,boy,boy,girl,,,,,,,,girl who has 2 of the plates,35732,kitchenwares,small,,4,10,,girl,,2_plates,10,[],64,,2,2,3.00,Female,English,no,Chrome,Windows,1080,1920,31.9665,
101,List1,Filler,,GirlOneSusanPears,,,3,9,one,,AOI4,AOI10,one,,42,33-33,Susan's,,Click on the girl that has one of Susan's pears,1,3_bananas,girl,3_oranges,3_apples,1_pear,2_pears,0,boy,boy,girl,,,,,,,,girl who has 1 pear,23976,fruit,small,,4,10,,girl,,1_pear,11,[],64,,2,2,3.00,Female,English,no,Chrome,Windows,1080,1920,31.9665,
101,List1,Exp,,GirlSomeAmyForks,,,4,10,some,,AOI3,AOI9,some,,34,44-22,Amy's,,Click on the girl that has some of Amy's forks,1,2_spoons,girl,3_plates,3_forks,2_knives,1_fork,1_plate,boy,boy,girl,,,,,,,,girl who has 3 forks,31315,kitchenwares,big,,3,9,,girl,,3_forks,12,[],64,,2,2,3.00,Female,English,no,Chrome,Windows,1080,1920,31.9665,
101,List1,Exp,,GirlSomeAmyKnives,,,4,10,some,,AOI3,AOI9,some,,15,33-33,Amy's,,Click on the girl that has some of Amy's knives,1,2_spoons,girl,3_plates,2_knives,3_forks,1_spoon,1_knife,boy,boy,girl,,,,,,,,girl missing a knife,26988,kitchenwares,small,,3,9,,girl,,2_knives,13,[],64,,2,2,3.00,Female,English,no,Chrome,Windows,1080,1920,31.9665,
101,List1,Exp,,BoyAllMichaelScissors,,,2,8,all,,AOI1,AOI7,all,,7,33-33,Michael's,,Click on the boy that has all of Michael's scissors,1,3_scissors,girl,2_pencils,3_erasers,2_rulers,1_pencil,1_ruler,boy,boy,girl,,,,,,,,boy with all the scissors,26989,stationeries,big,,1,7,,boy,,3_scissors,14,[],64,,2,2,3.00,Female,English,no,Chrome,Windows,1080,1920,31.9665,
101,List1,Exp,,GirlThreeMichaelScissors,,,4,10,num,,AOI3,AOI9,three,,10,33-33,Michael's,,Click on the girl that has three of Michael's scissors,1,3_rulers,girl,2_erasers,3_scissors,2_pencils,1_pencil,1_eraser,boy,boy,girl,,,,,,,,girl with all the scissors,21890,stationeries,big,,3,9,,girl,,3_scissors,15,[],64,,2,2,3.00,Female,English,no,Chrome,Windows,1080,1920,31.9665,
101,List1,Exp,,GirlAllAmyPlates,,,3,9,all,,AOI4,AOI10,all,,35,44-22,Amy's,,Click on the girl that has all of Amy's plates,1,3_spoons,girl,2_forks,3_knives,2_plates,1_spoon,1_knife,boy,boy,girl,,,,,,,,girl with 2 plates,29447,kitchenwares,small,,4,10,,girl,,2_plates,16,[],64,,2,2,3.00,Female,English,no,Chrome,Windows,1080,1920,31.9665,
101,List1,Exp,,GirlAllMichaelPencils,,,3,9,all,,AOI4,AOI10,all,,25,44-22,Michael's,,Click on the girl that has all of Michael's pencils,1,3_erasers,girl,2_rulers,3_scissors,2_pencils,1_eraser,1_scissor,boy,boy,girl,,,,,,,,girl who has 2 pencils,39878,stationeries,small,,4,10,,girl,,2_pencils,17,[],64,,2,2,3.00,Female,English,no,Chrome,Windows,1080,1920,31.9665,
101,List1,Exp,,GirlTwoSusanBananas,,,3,9,num,,AOI4,AOI10,two,,5,33-33,Susan's,,Click on the girl that has two of Susan's bananas,1,2_pears,girl,3_apples,3_oranges,2_bananas,1_banana,1_pear,boy,boy,girl,,,,,,,,girl who is missing her third banana,37379,fruit,small,,4,10,,girl,,2_bananas,18,[],64,,2,2,3.00,Female,English,no,Chrome,Windows,1080,1920,31.9665,
101,List1,Exp,,GirlSomeSusanBananas,,,3,9,some,,AOI4,AOI10,some,,19,44-22,Susan's,,Click on the girl that has some of Susan's bananas,1,3_oranges,girl,2_apples,2_pears,3_bananas,1_banana,1_orange,boy,boy,girl,,,,,,,,girl who is missing her 4th banana,36483,fruit,big,,4,10,,girl,,3_bananas,19,[],64,,2,2,3.00,Female,English,no,Chrome,Windows,1080,1920,31.9665,
101,List1,Exp,,BoyThreeAmyPlates,,,2,8,num,,AOI1,AOI7,three,,31,44-22,Amy's,,Click on the boy that has three of Amy's plates,1,3_plates,girl,2_forks,3_spoons,2_knives,1_spoon,1_plate,boy,boy,girl,,,,,,,,boy with 3 plates,31886,kitchenwares,big,,1,7,,boy,,3_plates,20,[],64,,2,2,3.00,Female,English,no,Chrome,Windows,1080,1920,31.9665,
101,List1,Exp,,BoyTwoAmySpoons,,,2,8,num,,AOI1,AOI7,two,,32,44-22,Amy's,,Click on the boy that has two of Amy's spoons,1,2_spoons,girl,3_knives,3_forks,2_plates,1_fork,1_knife,boy,boy,girl,,,,,,,,boy with 2 spoons,57320,kitchenwares,small,,1,7,,boy,,2_spoons,21,[],64,,2,2,3.00,Female,English,no,Chrome,Windows,1080,1920,31.9665,
101,List1,Filler,,BoyOneMichaelRulers,,,1,7,one,,AOI2,AOI8,one,,40,33-33,Michael's,,Click on the boy that has one of Michael's rulers,1,3_erasers,girl,1_ruler,3_pencils,3_scissors,2_scissors,0,boy,boy,girl,,,,,,,,boy with the only ruler,30212,stationeries,small,,2,8,,boy,,1_ruler,22,[],64,,2,2,3.00,Female,English,no,Chrome,Windows,1080,1920,31.9665,
101,List1,Filler,,BoyOneSusanApples,,,2,8,one,,AOI1,AOI7,one,,37,33-33,Susan's,,Click on the boy that has one of Susan's apples,1,1_apple,girl,3_pears,3_bananas,3_oranges,2_apples,0,boy,boy,girl,,,,,,,,boy who is missing his two apples,31363,fruit,small,,1,7,,boy,,1_apple,23,[],64,,2,2,3.00,Female,English,no,Chrome,Windows,1080,1920,31.9665,
101,List1,Exp,,BoyAllSusanOranges,,,1,7,all,,AOI2,AOI8,all,,21,44-22,Susan's,,Click on the boy that has all of Susan's oranges,1,3_bananas,girl,2_oranges,3_apples,2_pears,1_apple,1_banana,boy,boy,girl,,,,,,,,boy with two oranges,23607,fruit,small,,2,8,,boy,,2_oranges,24,[],64,,2,2,3.00,Female,English,no,Chrome,Windows,1080,1920,31.9665,
101,List1,Exp,,BoyAllSusanApples,,,2,8,all,,AOI1,AOI7,all,,22,44-22,Susan's,,Click on the boy that has all of Susan's apples,1,2_apples,girl,3_pears,3_oranges,2_bananas,1_orange,1_pear,boy,boy,girl,,,,,,,,boy with apples,23978,fruit,small,,1,7,,boy,,2_apples,25,[],64,,2,2,3.00,Female,English,no,Chrome,Windows,1080,1920,31.9665,
101,List1,Filler,,BoyOneAmyPlates,,,2,8,one,,AOI1,AOI7,one,,38,33-33,Amy's,,Click on the boy that has one of Amy's plates,1,1_plate,girl,3_knives,3_forks,3_spoons,2_plates,0,boy,boy,girl,,,,,,,,boy missing his 2 plates,28305,kitchenwares,small,,1,7,,boy,,1_plate,26,[],64,,2,2,3.00,Female,English,no,Chrome,Windows,1080,1920,31.9665,
101,List1,Exp,,GirlAllMichaelErasers,,,4,10,all,,AOI3,AOI9,all,,26,44-22,Michael's,,Click on the girl that has all of Michael's erasers,1,3_pencils,girl,2_scissors,2_erasers,3_rulers,1_pencil,1_ruler,boy,boy,girl,,,,,,,,girl with only erasers,20358,stationeries,small,,3,9,,girl,,2_erasers,27,[],64,,2,2,3.00,Female,English,no,Chrome,Windows,1080,1920,31.9665,
101,List1,Exp,,GirlSomeSusanApples,,,4,10,some,,AOI3,AOI9,some,,20,44-22,Susan's,,Click on the girl that has some of Susan's apples,1,3_pears,girl,2_bananas,3_apples,2_oranges,1_apple,1_pear,boy,boy,girl,,,,,,,,girl with all the apples,29116,fruit,big,,3,9,,girl,,3_apples,28,[],64,,2,2,3.00,Female,English,no,Chrome,Windows,1080,1920,31.9665,
101,List1,Exp,,GirlThreeSusanOranges,,,4,10,num,,AOI3,AOI9,three,,23,44-22,Susan's,,Click on the girl that has three of Susan's oranges,1,3_apples,girl,2_pears,3_oranges,2_bananas,1_apple,1_orange,boy,boy,girl,,,,,,,,girl with only oranges,27973,fruit,big,,3,9,,girl,,3_oranges,29,[],64,,2,2,3.00,Female,English,no,Chrome,Windows,1080,1920,31.9665,
101,List1,Exp,,BoyAllSusanPears,,,1,7,all,,AOI2,AOI8,all,,3,33-33,Susan's,,Click on the boy that has all of Susan's pears,1,2_apples,girl,3_pears,2_bananas,3_oranges,1_apple,1_banana,boy,boy,girl,,,,,,,,only boy with pears,26456,fruit,big,,2,8,,boy,,3_pears,30,[],64,,2,2,3.00,Female,English,no,Chrome,Windows,1080,1920,31.9665,
101,List1,Filler,,BoyFourSusanBananas,,,1,7,four,,AOI2,AOI8,four,,44,44-22,Susan's,,Click on the boy that has four of Susan's bananas,1,1_orange,girl,4_bananas,3_pears,2_apples,1_orange,1_pear,boy,boy,girl,,,,,,,,only boy with bananas,24034,fruit,big,,2,8,,boy,,4_bananas,31,[],64,,2,2,3.00,Female,English,no,Chrome,Windows,1080,1920,31.9665,
101,List1,Exp,,BoySomeMichaelPencils,,,2,8,some,,AOI1,AOI7,some,,29,44-22,Michael's,,Click on the boy that has some of Michael's pencils,1,3_pencils,girl,2_erasers,3_scissors,2_rulers,1_pencil,1_scissor,boy,boy,girl,,,,,,,,boy missing his pencil,40486,stationeries,big,,1,7,,boy,,3_pencils,32,[],64,,2,2,3.00,Female,English,no,Chrome,Windows,1080,1920,31.9665,
101,List1,Exp,,GirlSomeMichaelRulers,,,3,9,some,,AOI4,AOI10,some,,30,44-22,Michael's,,Click on the girl that has some of Michael's rulers,1,3_erasers,girl,2_pencils,2_scissors,3_rulers,1_ruler,1_eraser,boy,boy,girl,,,,,,,,girl with rulers,90450,stationeries,big,,4,10,,girl,,3_rulers,33,[],64,,2,2,3.00,Female,English,no,Chrome,Windows,1080,1920,31.9665,
101,List1,Filler,,GirlOneMichaelErasers,,,4,10,one,,AOI3,AOI9,one,,41,33-33,Michael's,,Click on the girl that has one of Michael's erasers,1,3_pencils,girl,3_scissors,1_eraser,3_rulers,2_erasers,0,boy,boy,girl,,,,,,,,girl with an eraser,23059,stationeries,small,,3,9,,girl,,1_eraser,34,[],64,,2,2,3.00,Female,English,no,Chrome,Windows,1080,1920,31.9665,
101,List1,Exp,,BoySomeAmySpoons,,,1,7,some,,AOI2,AOI8,some,,33,44-22,Amy's,,Click on the boy that has some of Amy's spoons,1,2_plates,girl,3_spoons,2_forks,3_knives,1_spoon,1_knife,boy,boy,girl,,,,,,,,only boy with spoons,29276,kitchenwares,big,,2,8,,boy,,3_spoons,35,[],64,,2,2,3.00,Female,English,no,Chrome,Windows,1080,1920,31.9665,
101,List1,Exp,,BoySomeSusanPears,,,2,8,some,,AOI1,AOI7,some,,1,33-33,Susan's,,Click on the boy that has some of Susan's pears,1,2_pears,girl,3_bananas,2_apples,3_oranges,1_apple,1_pear,boy,boy,girl,,,,,,,,boy with 2 pears,34511,fruit,small,,1,7,,boy,,2_pears,36,[],64,,2,2,3.00,Female,English,no,Chrome,Windows,1080,1920,31.9665,
101,List1,Exp,,GirlAllSusanBananas,,,4,10,all,,AOI3,AOI9,all,,4,33-33,Susan's,,Click on the girl that has all of Susan's bananas,1,2_pears,girl,3_apples,3_bananas,2_oranges,1_orange,1_pear,boy,boy,girl,,,,,,,,only girl with bananas,22448,fruit,big,,3,9,,girl,,3_bananas,37,[],64,,2,2,3.00,Female,English,no,Chrome,Windows,1080,1920,31.9665,
101,List1,Exp,,GirlTwoMichaelRulers,,,4,10,num,,AOI3,AOI9,two,,9,33-33,Michael's,,Click on the girl that has two of Michael's rulers,1,3_pencils,girl,2_scissors,2_rulers,3_erasers,1_ruler,1_scissor,boy,boy,girl,,,,,,,,girl with rulers,22514,stationeries,small,,3,9,,girl,,2_rulers,38,[],64,,2,2,3.00,Female,English,no,Chrome,Windows,1080,1920,31.9665,
101,List1,Filler,,BoyOneAmySpoons,,,1,7,one,,AOI2,AOI8,one,,39,33-33,Amy's,,Click on the boy that has one of Amy's spoons,1,3_forks,girl,1_spoon,3_plates,3_knives,2_spoons,0,boy,boy,girl,,,,,,,,boy missing 2 spoons,28054,kitchenwares,small,,2,8,,boy,,1_spoon,39,[],64,,2,2,3.00,Female,English,no,Chrome,Windows,1080,1920,31.9665,
101,List1,Exp,,GirlTwoAmyForks,,,3,9,num,,AOI4,AOI10,two,,13,33-33,Amy's,,Click on the girl that has two of Amy's forks,1,2_knives,girl,3_spoons,3_plates,2_forks,1_fork,1_knife,boy,boy,girl,,,,,,,,only girl with forks,31722,kitchenwares,small,,4,10,,girl,,2_forks,40,[],64,,2,2,3.00,Female,English,no,Chrome,Windows,1080,1920,31.9665,
101,List1,Filler,,GirlFourSusanOranges,,,4,10,four,,AOI3,AOI9,four,,45,44-22,Susan's,,Click on the girl that has four of Susan's oranges,1,2_pears,girl,3_apples,4_oranges,1_banana,1_banana,1_apple,boy,boy,girl,,,,,,,,girl with all the oranges,23560,fruit,big,,3,9,,girl,,4_oranges,41,[],64,,2,2,3.00,Female,English,no,Chrome,Windows,1080,1920,31.9665,
101,List1,Exp,,BoyAllAmyForks,,,1,7,all,,AOI2,AOI8,all,,17,33-33,Amy's,,Click on the boy that has all of Amy's forks,1,2_spoons,girl,3_forks,2_knives,3_plates,1_spoon,1_knife,boy,boy,girl,,,,,,,,boy with all the forks,30107,kitchenwares,big,,2,8,,boy,,3_forks,42,[],64,,2,2,3.00,Female,English,no,Chrome,Windows,1080,1920,31.9665,
101,List1,Exp,,BoyTwoSusanApples,,,2,8,num,,AOI1,AOI7,two,,24,44-22,Susan's,,Click on the boy that has two of Susan's apples,1,2_apples,girl,3_pears,3_bananas,2_oranges,1_banana,1_pear,boy,boy,girl,,,,,,,,boy with only apples,22239,fruit,small,,1,7,,boy,,2_apples,43,[],64,,2,2,3.00,Female,English,no,Chrome,Windows,1080,1920,31.9665,
101,List1,Filler,,GirlFourAmyKnives,,,4,10,four,,AOI3,AOI9,four,,46,44-22,Amy's,,Click on the girl that has four of Amy's knives,1,1_spoon,girl,3_plates,4_knives,2_forks,1_spoon,1_plate,boy,boy,girl,,,,,,,,girl with all the knives,30117,kitchenwares,big,,3,9,,girl,,4_knives,44,[],64,,2,2,3.00,Female,English,no,Chrome,Windows,1080,1920,31.9665,
101,List1,Exp,,GirlThreeSusanPears,,,3,9,num,,AOI4,AOI10,three,,6,33-33,Susan's,,Click on the girl that has three of Susan's pears,1,2_oranges,girl,3_bananas,2_apples,3_pears,1_apple,1_orange,boy,boy,girl,,,,,,,,girl with all the pears,21768,fruit,big,,4,10,,girl,,3_pears,45,[],64,,2,2,3.00,Female,English,no,Chrome,Windows,1080,1920,31.9665,
101,List1,Exp,,BoySomeSusanOranges,,,1,7,some,,AOI2,AOI8,some,,2,33-33,Susan's,,Click on the boy that has some of Susan's oranges,1,3_apples,girl,2_oranges,2_bananas,3_pears,1_banana,1_orange,boy,boy,girl,,,,,,,,boy with all the oranges,30026,fruit,small,,2,8,,boy,,2_oranges,46,[],64,,2,2,3.00,Female,English,no,Chrome,Windows,1080,1920,31.9665,
101,List1,Exp,,GirlAllAmySpoons,,,4,10,all,,AOI3,AOI9,all,,36,44-22,Amy's,,Click on the girl that has all of Amy's spoons,1,3_plates,girl,2_knives,2_spoons,3_forks,1_plate,1_fork,boy,boy,girl,,,,,,,,girl with only spoons,27321,kitchenwares,small,,3,9,,girl,,2_spoons,47,[],64,,2,2,3.00,Female,English,no,Chrome,Windows,1080,1920,31.9665,
101,List1,Exp,,BoyTwoMichaelPencils,,,1,7,num,,AOI2,AOI8,two,,28,44-22,Michael's,,Click on the boy that has two of Michael's pencils,1,3_scissors,girl,2_pencils,2_erasers,3_rulers,1_ruler,1_scissor,boy,boy,girl,,,,,,,,boy with only pencils,26433,stationeries,small,,2,8,,boy,,2_pencils,48,[],64,,2,2,3.00,Female,English,no,Chrome,Windows,1080,1920,31.9665,
127,List1,Prac,Fruit_Susan_Monday,,Fruit_residue,1,2,,,two,AOI1,AOI7,,two,1,33-33,Susan,Click on the boy that has two of Susan's apples,,,2_apples,girl,3_bananas,2_pears,3_oranges,1_apple,1_pear,boy,boy,girl,apples,D3_pears,D3_bananas,D3_oranges,clicking practice,,BoyTwoSusanapples,"['AOI7', 'AOI8', 'AOI7', 'AOI7']",,fruit,,small,1,,boy,,2_apples,,,[],21,,2,1,Yes,Female,English,"I always had to click to the end of the sentence, even when the figure I clicked was the correct one.",Chrome,Mac,900,1440,19.83985,
127,List1,Prac,Fruit_Susan_Tuesday,,Slience,2,1,,,some,AOI3,AOI9,,some,2,44-22,Susan,Click on the girl that has some of Susan's apples,,,3_bananas,girl,2_pears,3_apples,2_oranges,1_apple,1_banana,boy,boy,girl,apples,D2_pears,D4_bananas,D2_oranges,clicking practice,,GirlSomeSusanapples,"['AOI9', 'AOI9', 'AOI9', 'AOI9']",,fruit,,small,3,,girl,,3_apples,,,[],21,,2,1,Yes,Female,English,"I always had to click to the end of the sentence, even when the figure I clicked was the correct one.",Chrome,Mac,900,1440,19.83985,
127,List1,Prac,Stationary_Michael_Monday,,Residue_stationary,3,4,,,num,AOI1,AOI7,,three,3,33-33,Michael,Click on the boy that has three of Michael's scissors,,,3_scissors,girl,2_pencils,3_erasers,2_rulers,1_pencil,1_ruler,boy,boy,girl,erasers,D3_pencils,D3_erasers,D3_rulers,clicking practice,,BoyThreeMichaelscissors,"['AOI9', 'AOI7', 'AOI1', 'AOI1']",,office supplies,,big,1,,boy,,3_scissors,,,[],21,,2,1,Yes,Female,English,"I always had to click to the end of the sentence, even when the figure I clicked was the correct one.",Chrome,Mac,900,1440,19.83985,
127,List1,Prac,Stationary_Michael_Tuesday,,Residue_stationary,4,3,,,all,AOI4,AOI10,,all,4,44-22,Michael,Click on the girl that has all of Michael's rulers,,,3_pencils,girl,2_scissors,3_erasers,2_rulers,1_pencil,1_eraser,boy,boy,girl,rulers,D4_pencils,D4_erasers,D2_rulers,clicking practice,,GirlAllMichaelrulers,"['AOI7', 'AOI9', 'AOI9', 'AOI10']",,office supplies,,small,4,,girl,,2_rulers,,,[],21,,2,1,Yes,Female,English,"I always had to click to the end of the sentence, even when the figure I clicked was the correct one.",Chrome,Mac,900,1440,19.83985,
127,List1,Prac,kitchware_Amy_Monday,,Residue_kitchen,,4,,,num,AOI3,AOI9,,three,5,44-22,Amy,Click on the girl that has three of Amy's knives,,,2_spoons,girl,3_forks,3_knives,2_plates,1_fork,1_knife,boy,boy,girl,knives,D4_forks,D2_spoons,D4_knives,production practice,1,GirlThreeAmyknives,girl that has three knives.,,kitchenwares,,big,3,,girl,,3_knives,,,[],21,,2,1,Yes,Female,English,"I always had to click to the end of the sentence, even when the figure I clicked was the correct one.",Chrome,Mac,900,1440,19.83985,
127,List1,Prac,kitchware_Amy_Tuesday,,Slience,,2,,,some,AOI4,AOI10,,some,6,33-33,Amy,Click on the girl that has some of Amy's forks,,,3_spoons,girl,2_knives,3_plates,2_forks,1_fork,1_knife,boy,boy,girl,forks,D3_forks,D3_spoons,D3_knives,production practice,2,GirlSomeAmyforks,girl that has two forks.,,kitchenwares,,big,4,,girl,,2_forks,,,[],21,,2,1,Yes,Female,English,"I always had to click to the end of the sentence, even when the figure I clicked was the correct one.",Chrome,Mac,900,1440,19.83985,
127,List1,Filler,,GirlOneMichaelErasers,,,4,10,one,,AOI3,AOI9,one,,41,33-33,Michael's,,Click on the girl that has one of Michael's erasers,1,3_pencils,girl,3_scissors,1_eraser,3_rulers,2_erasers,0,boy,boy,girl,,,,,,,,girl that has one item.,8576,stationeries,small,,3,9,,girl,,1_eraser,1,[],21,,2,1,Yes,Female,English,"I always had to click to the end of the sentence, even when the figure I clicked was the correct one.",Chrome,Mac,900,1440,19.83985,
127,List1,Filler,,GirlFourAmyKnives,,,4,10,four,,AOI3,AOI9,four,,46,44-22,Amy's,,Click on the girl that has four of Amy's knives,1,1_spoon,girl,3_plates,4_knives,2_forks,1_spoon,1_plate,boy,boy,girl,,,,,,,,girl that has all of the knives.,11662,kitchenwares,big,,3,9,,girl,,4_knives,2,[],21,,2,1,Yes,Female,English,"I always had to click to the end of the sentence, even when the figure I clicked was the correct one.",Chrome,Mac,900,1440,19.83985,
127,List1,Exp,,GirlAllMichaelPencils,,,3,9,all,,AOI4,AOI10,all,,25,44-22,Michael's,,Click on the girl that has all of Michael's pencils,1,3_erasers,girl,2_rulers,3_scissors,2_pencils,1_eraser,1_scissor,boy,boy,girl,,,,,,,,girl who has all the pencils.,9012,stationeries,small,,4,10,,girl,,2_pencils,3,[],21,,2,1,Yes,Female,English,"I always had to click to the end of the sentence, even when the figure I clicked was the correct one.",Chrome,Mac,900,1440,19.83985,
127,List1,Exp,,BoySomeMichaelErasers,,,2,8,some,,AOI1,AOI7,some,,11,33-33,Michael's,,Click on the boy that has some of Michael's erasers,1,2_erasers,girl,3_pencils,2_rulers,3_scissors,1_ruler,1_eraser,boy,boy,girl,,,,,,,,boy who has two erasers.,11986,stationeries,small,,1,7,,boy,,2_erasers,4,[],21,,2,1,Yes,Female,English,"I always had to click to the end of the sentence, even when the figure I clicked was the correct one.",Chrome,Mac,900,1440,19.83985,
127,List1,Exp,,BoyTwoAmySpoons,,,2,8,num,,AOI1,AOI7,two,,32,44-22,Amy's,,Click on the boy that has two of Amy's spoons,1,2_spoons,girl,3_knives,3_forks,2_plates,1_fork,1_knife,boy,boy,girl,,,,,,,,boy who has all the spoons.,9674,kitchenwares,small,,1,7,,boy,,2_spoons,5,[],21,,2,1,Yes,Female,English,"I always had to click to the end of the sentence, even when the figure I clicked was the correct one.",Chrome,Mac,900,1440,19.83985,
127,List1,Exp,,BoyTwoSusanApples,,,2,8,num,,AOI1,AOI7,two,,24,44-22,Susan's,,Click on the boy that has two of Susan's apples,1,2_apples,girl,3_pears,3_bananas,2_oranges,1_banana,1_pear,boy,boy,girl,,,,,,,,boy with all the apples.,8428,fruit,small,,1,7,,boy,,2_apples,6,[],21,,2,1,Yes,Female,English,"I always had to click to the end of the sentence, even when the figure I clicked was the correct one.",Chrome,Mac,900,1440,19.83985,
127,List1,Exp,,GirlAllSusanBananas,,,4,10,all,,AOI3,AOI9,all,,4,33-33,Susan's,,Click on the girl that has all of Susan's bananas,1,2_pears,girl,3_apples,3_bananas,2_oranges,1_orange,1_pear,boy,boy,girl,,,,,,,,girl with all the bananas.,7180,fruit,big,,3,9,,girl,,3_bananas,7,[],21,,2,1,Yes,Female,English,"I always had to click to the end of the sentence, even when the figure I clicked was the correct one.",Chrome,Mac,900,1440,19.83985,
127,List1,Exp,,GirlSomeMichaelRulers,,,3,9,some,,AOI4,AOI10,some,,30,44-22,Michael's,,Click on the girl that has some of Michael's rulers,1,3_erasers,girl,2_pencils,2_scissors,3_rulers,1_ruler,1_eraser,boy,boy,girl,,,,,,,,girl with three rulers.,9732,stationeries,big,,4,10,,girl,,3_rulers,8,[],21,,2,1,Yes,Female,English,"I always had to click to the end of the sentence, even when the figure I clicked was the correct one.",Chrome,Mac,900,1440,19.83985,
127,List1,Filler,,BoyOneAmySpoons,,,1,7,one,,AOI2,AOI8,one,,39,33-33,Amy's,,Click on the boy that has one of Amy's spoons,1,3_forks,girl,1_spoon,3_plates,3_knives,2_spoons,0,boy,boy,girl,,,,,,,,boy with one item.,8259,kitchenwares,small,,2,8,,boy,,1_spoon,9,[],21,,2,1,Yes,Female,English,"I always had to click to the end of the sentence, even when the figure I clicked was the correct one.",Chrome,Mac,900,1440,19.83985,
127,List1,Exp,,GirlSomeAmyKnives,,,4,10,some,,AOI3,AOI9,some,,15,33-33,Amy's,,Click on the girl that has some of Amy's knives,1,2_spoons,girl,3_plates,2_knives,3_forks,1_spoon,1_knife,boy,boy,girl,,,,,,,,girl with two knives.,9577,kitchenwares,small,,3,9,,girl,,2_knives,10,[],21,,2,1,Yes,Female,English,"I always had to click to the end of the sentence, even when the figure I clicked was the correct one.",Chrome,Mac,900,1440,19.83985,
127,List1,Exp,,GirlSomeSusanBananas,,,3,9,some,,AOI4,AOI10,some,,19,44-22,Susan's,,Click on the girl that has some of Susan's bananas,1,3_oranges,girl,2_apples,2_pears,3_bananas,1_banana,1_orange,boy,boy,girl,,,,,,,,girl with three bananas.,6822,fruit,big,,4,10,,girl,,3_bananas,11,[],21,,2,1,Yes,Female,English,"I always had to click to the end of the sentence, even when the figure I clicked was the correct one.",Chrome,Mac,900,1440,19.83985,
127,List1,Exp,,BoySomeSusanOranges,,,1,7,some,,AOI2,AOI8,some,,2,33-33,Susan's,,Click on the boy that has some of Susan's oranges,1,3_apples,girl,2_oranges,2_bananas,3_pears,1_banana,1_orange,boy,boy,girl,,,,,,,,boy with two oranges.,8899,fruit,small,,2,8,,boy,,2_oranges,12,[],21,,2,1,Yes,Female,English,"I always had to click to the end of the sentence, even when the figure I clicked was the correct one.",Chrome,Mac,900,1440,19.83985,
127,List1,Exp,,BoySomeSusanPears,,,2,8,some,,AOI1,AOI7,some,,1,33-33,Susan's,,Click on the boy that has some of Susan's pears,1,2_pears,girl,3_bananas,2_apples,3_oranges,1_apple,1_pear,boy,boy,girl,,,,,,,,boy with two pears.,4875,fruit,small,,1,7,,boy,,2_pears,13,[],21,,2,1,Yes,Female,English,"I always had to click to the end of the sentence, even when the figure I clicked was the correct one.",Chrome,Mac,900,1440,19.83985,
127,List1,Exp,,GirlSomeAmyForks,,,4,10,some,,AOI3,AOI9,some,,34,44-22,Amy's,,Click on the girl that has some of Amy's forks,1,2_spoons,girl,3_plates,3_forks,2_knives,1_fork,1_plate,boy,boy,girl,,,,,,,,girl with three forks,5689,kitchenwares,big,,3,9,,girl,,3_forks,14,[],21,,2,1,Yes,Female,English,"I always had to click to the end of the sentence, even when the figure I clicked was the correct one.",Chrome,Mac,900,1440,19.83985,
127,List1,Exp,,BoyAllSusanPears,,,1,7,all,,AOI2,AOI8,all,,3,33-33,Susan's,,Click on the boy that has all of Susan's pears,1,2_apples,girl,3_pears,2_bananas,3_oranges,1_apple,1_banana,boy,boy,girl,,,,,,,,boy with all the pears.,6979,fruit,big,,2,8,,boy,,3_pears,15,[],21,,2,1,Yes,Female,English,"I always had to click to the end of the sentence, even when the figure I clicked was the correct one.",Chrome,Mac,900,1440,19.83985,
127,List1,Exp,,BoySomeMichaelPencils,,,2,8,some,,AOI1,AOI7,some,,29,44-22,Michael's,,Click on the boy that has some of Michael's pencils,1,3_pencils,girl,2_erasers,3_scissors,2_rulers,1_pencil,1_scissor,boy,boy,girl,,,,,,,,boy with three pencils.,6636,stationeries,big,,1,7,,boy,,3_pencils,16,[],21,,2,1,Yes,Female,English,"I always had to click to the end of the sentence, even when the figure I clicked was the correct one.",Chrome,Mac,900,1440,19.83985,
127,List1,Filler,,GirlFourMichaelPencils,,,3,9,four,,AOI4,AOI10,four,,48,44-22,Michael's,,Click on the girl that has four of Michael's pencils,1,1_ruler,girl,2_erasers,3_scissors,4_pencils,1_ruler,1_scissor,boy,boy,girl,,,,,,,,girl with all the pencils.,7467,stationeries,big,,4,10,,girl,,4_pencils,17,[],21,,2,1,Yes,Female,English,"I always had to click to the end of the sentence, even when the figure I clicked was the correct one.",Chrome,Mac,900,1440,19.83985,
127,List1,Filler,,BoyOneAmyPlates,,,2,8,one,,AOI1,AOI7,one,,38,33-33,Amy's,,Click on the boy that has one of Amy's plates,1,1_plate,girl,3_knives,3_forks,3_spoons,2_plates,0,boy,boy,girl,,,,,,,,boy with one item.,5738,kitchenwares,small,,1,7,,boy,,1_plate,18,[],21,,2,1,Yes,Female,English,"I always had to click to the end of the sentence, even when the figure I clicked was the correct one.",Chrome,Mac,900,1440,19.83985,
127,List1,Exp,,GirlSomeAmyPlates,,,3,9,some,,AOI4,AOI10,some,,16,33-33,Amy's,,Click on the girl that has some of Amy's plates,1,2_forks,girl,3_knives,3_spoons,2_plates,1_fork,1_plate,boy,boy,girl,,,,,,,,girl with two plates.,6457,kitchenwares,small,,4,10,,girl,,2_plates,19,[],21,,2,1,Yes,Female,English,"I always had to click to the end of the sentence, even when the figure I clicked was the correct one.",Chrome,Mac,900,1440,19.83985,
127,List1,Exp,,GirlTwoAmyForks,,,3,9,num,,AOI4,AOI10,two,,13,33-33,Amy's,,Click on the girl that has two of Amy's forks,1,2_knives,girl,3_spoons,3_plates,2_forks,1_fork,1_knife,boy,boy,girl,,,,,,,,girl with two forks.,6623,kitchenwares,small,,4,10,,girl,,2_forks,20,[],21,,2,1,Yes,Female,English,"I always had to click to the end of the sentence, even when the figure I clicked was the correct one.",Chrome,Mac,900,1440,19.83985,
127,List1,Exp,,GirlAllMichaelRulers,,,3,9,all,,AOI4,AOI10,all,,8,33-33,Michael's,,Click on the girl that has all of Michael's rulers,1,2_scissors,girl,3_pencils,2_erasers,3_rulers,1_eraser,1_scissor,boy,boy,girl,,,,,,,,girl with all the rulers.,6013,stationeries,big,,4,10,,girl,,3_rulers,21,[],21,,2,1,Yes,Female,English,"I always had to click to the end of the sentence, even when the figure I clicked was the correct one.",Chrome,Mac,900,1440,19.83985,
127,List1,Filler,,GirlFourAmyPlates,,,3,9,four,,AOI4,AOI10,four,,47,44-22,Amy's,,Click on the girl that has four of Amy's plates,1,1_knife,girl,3_forks,2_spoons,4_plates,1_knife,1_fork,boy,boy,girl,,,,,,,,girl with all the plates.,7130,kitchenwares,big,,4,10,,girl,,4_plates,22,[],21,,2,1,Yes,Female,English,"I always had to click to the end of the sentence, even when the figure I clicked was the correct one.",Chrome,Mac,900,1440,19.83985,
127,List1,Filler,,BoyOneMichaelRulers,,,1,7,one,,AOI2,AOI8,one,,40,33-33,Michael's,,Click on the boy that has one of Michael's rulers,1,3_erasers,girl,1_ruler,3_pencils,3_scissors,2_scissors,0,boy,boy,girl,,,,,,,,boy with one item.,6073,stationeries,small,,2,8,,boy,,1_ruler,23,[],21,,2,1,Yes,Female,English,"I always had to click to the end of the sentence, even when the figure I clicked was the correct one.",Chrome,Mac,900,1440,19.83985,
127,List1,Exp,,BoySomeMichaelScissors,,,1,7,some,,AOI2,AOI8,some,,12,33-33,Michael's,,Click on the boy that has some of Michael's scissors,1,3_rulers,girl,2_scissors,2_pencils,3_erasers,1_pencil,1_scissor,boy,boy,girl,,,,,,,,boy with two scissors.,89134,stationeries,small,,2,8,,boy,,2_scissors,24,[],21,,2,1,Yes,Female,English,"I always had to click to the end of the sentence, even when the figure I clicked was the correct one.",Chrome,Mac,900,1440,19.83985,
127,List1,Exp,,BoyAllSusanOranges,,,1,7,all,,AOI2,AOI8,all,,21,44-22,Susan's,,Click on the boy that has all of Susan's oranges,1,3_bananas,girl,2_oranges,3_apples,2_pears,1_apple,1_banana,boy,boy,girl,,,,,,,,boy with two oranges.,7558,fruit,small,,2,8,,boy,,2_oranges,25,[],21,,2,1,Yes,Female,English,"I always had to click to the end of the sentence, even when the figure I clicked was the correct one.",Chrome,Mac,900,1440,19.83985,
127,List1,Exp,,BoyThreeAmyPlates,,,2,8,num,,AOI1,AOI7,three,,31,44-22,Amy's,,Click on the boy that has three of Amy's plates,1,3_plates,girl,2_forks,3_spoons,2_knives,1_spoon,1_plate,boy,boy,girl,,,,,,,,boy with three plates.,5132,kitchenwares,big,,1,7,,boy,,3_plates,26,[],21,,2,1,Yes,Female,English,"I always had to click to the end of the sentence, even when the figure I clicked was the correct one.",Chrome,Mac,900,1440,19.83985,
127,List1,Exp,,GirlSomeSusanApples,,,4,10,some,,AOI3,AOI9,some,,20,44-22,Susan's,,Click on the girl that has some of Susan's apples,1,3_pears,girl,2_bananas,3_apples,2_oranges,1_apple,1_pear,boy,boy,girl,,,,,,,,girl with three apples.,5208,fruit,big,,3,9,,girl,,3_apples,27,[],21,,2,1,Yes,Female,English,"I always had to click to the end of the sentence, even when the figure I clicked was the correct one.",Chrome,Mac,900,1440,19.83985,
127,List1,Filler,,BoyFourMichaelScissors,,,2,8,four,,AOI1,AOI7,four,,43,44-22,Michael's,,Click on the boy that has four of Michael's scissors,1,4_scissors,girl,1_pencil,2_rulers,3_erasers,1_pencil,1_eraser,boy,boy,girl,,,,,,,,boy with four scissors.,6550,stationeries,big,,1,7,,boy,,4_scissors,28,[],21,,2,1,Yes,Female,English,"I always had to click to the end of the sentence, even when the figure I clicked was the correct one.",Chrome,Mac,900,1440,19.83985,
127,List1,Exp,,GirlThreeSusanPears,,,3,9,num,,AOI4,AOI10,three,,6,33-33,Susan's,,Click on the girl that has three of Susan's pears,1,2_oranges,girl,3_bananas,2_apples,3_pears,1_apple,1_orange,boy,boy,girl,,,,,,,,girl with all the pears.,6686,fruit,big,,4,10,,girl,,3_pears,29,[],21,,2,1,Yes,Female,English,"I always had to click to the end of the sentence, even when the figure I clicked was the correct one.",Chrome,Mac,900,1440,19.83985,
127,List1,Exp,,BoyAllSusanApples,,,2,8,all,,AOI1,AOI7,all,,22,44-22,Susan's,,Click on the boy that has all of Susan's apples,1,2_apples,girl,3_pears,3_oranges,2_bananas,1_orange,1_pear,boy,boy,girl,,,,,,,,boy with two apples,6041,fruit,small,,1,7,,boy,,2_apples,30,[],21,,2,1,Yes,Female,English,"I always had to click to the end of the sentence, even when the figure I clicked was the correct one.",Chrome,Mac,900,1440,19.83985,
127,List1,Exp,,BoyThreeAmyKnives,,,1,7,num,,AOI2,AOI8,three,,14,33-33,Amy's,,Click on the boy that has three of Amy's knives,1,2_spoons,girl,3_knives,2_plates,3_forks,1_spoon,1_plate,boy,boy,girl,,,,,,,,boy with three knives.,6816,kitchenwares,big,,2,8,,boy,,3_knives,31,[],21,,2,1,Yes,Female,English,"I always had to click to the end of the sentence, even when the figure I clicked was the correct one.",Chrome,Mac,900,1440,19.83985,
127,List1,Exp,,BoySomeAmySpoons,,,1,7,some,,AOI2,AOI8,some,,33,44-22,Amy's,,Click on the boy that has some of Amy's spoons,1,2_plates,girl,3_spoons,2_forks,3_knives,1_spoon,1_knife,boy,boy,girl,,,,,,,,boy with three spoons,15598,kitchenwares,big,,2,8,,boy,,3_spoons,32,[],21,,2,1,Yes,Female,English,"I always had to click to the end of the sentence, even when the figure I clicked was the correct one.",Chrome,Mac,900,1440,19.83985,
127,List1,Exp,,GirlTwoMichaelRulers,,,4,10,num,,AOI3,AOI9,two,,9,33-33,Michael's,,Click on the girl that has two of Michael's rulers,1,3_pencils,girl,2_scissors,2_rulers,3_erasers,1_ruler,1_scissor,boy,boy,girl,,,,,,,,girl with two rulers,4633,stationeries,small,,3,9,,girl,,2_rulers,33,[],21,,2,1,Yes,Female,English,"I always had to click to the end of the sentence, even when the figure I clicked was the correct one.",Chrome,Mac,900,1440,19.83985,
127,List1,Exp,,GirlThreeMichaelScissors,,,4,10,num,,AOI3,AOI9,three,,10,33-33,Michael's,,Click on the girl that has three of Michael's scissors,1,3_rulers,girl,2_erasers,3_scissors,2_pencils,1_pencil,1_eraser,boy,boy,girl,,,,,,,,girl with three scissors,5276,stationeries,big,,3,9,,girl,,3_scissors,34,[],21,,2,1,Yes,Female,English,"I always had to click to the end of the sentence, even when the figure I clicked was the correct one.",Chrome,Mac,900,1440,19.83985,
127,List1,Exp,,BoyThreeMichaelErasers,,,1,7,num,,AOI2,AOI8,three,,27,44-22,Michael's,,Click on the boy that has three of Michael's erasers,1,2_rulers,girl,3_erasers,2_scissors,3_pencils,1_pencil,1_eraser,boy,boy,girl,,,,,,,,boy with three erasers,3801,stationeries,big,,2,8,,boy,,3_erasers,35,[],21,,2,1,Yes,Female,English,"I always had to click to the end of the sentence, even when the figure I clicked was the correct one.",Chrome,Mac,900,1440,19.83985,
127,List1,Exp,,BoyAllAmyKnives,,,2,8,all,,AOI1,AOI7,all,,18,33-33,Amy's,,Click on the boy that has all of Amy's knives,1,3_knives,girl,2_plates,3_spoons,2_forks,1_plate,1_fork,boy,boy,girl,,,,,,,,boy with three knives,4887,kitchenwares,big,,1,7,,boy,,3_knives,36,[],21,,2,1,Yes,Female,English,"I always had to click to the end of the sentence, even when the figure I clicked was the correct one.",Chrome,Mac,900,1440,19.83985,
127,List1,Filler,,BoyFourSusanBananas,,,1,7,four,,AOI2,AOI8,four,,44,44-22,Susan's,,Click on the boy that has four of Susan's bananas,1,1_orange,girl,4_bananas,3_pears,2_apples,1_orange,1_pear,boy,boy,girl,,,,,,,,boy with four bananas,5475,fruit,big,,2,8,,boy,,4_bananas,37,[],21,,2,1,Yes,Female,English,"I always had to click to the end of the sentence, even when the figure I clicked was the correct one.",Chrome,Mac,900,1440,19.83985,
127,List1,Exp,,GirlThreeSusanOranges,,,4,10,num,,AOI3,AOI9,three,,23,44-22,Susan's,,Click on the girl that has three of Susan's oranges,1,3_apples,girl,2_pears,3_oranges,2_bananas,1_apple,1_orange,boy,boy,girl,,,,,,,,girl with three oranges,4734,fruit,big,,3,9,,girl,,3_oranges,38,[],21,,2,1,Yes,Female,English,"I always had to click to the end of the sentence, even when the figure I clicked was the correct one.",Chrome,Mac,900,1440,19.83985,
127,List1,Exp,,BoyAllAmyForks,,,1,7,all,,AOI2,AOI8,all,,17,33-33,Amy's,,Click on the boy that has all of Amy's forks,1,2_spoons,girl,3_forks,2_knives,3_plates,1_spoon,1_knife,boy,boy,girl,,,,,,,,boy with three forks,4622,kitchenwares,big,,2,8,,boy,,3_forks,39,[],21,,2,1,Yes,Female,English,"I always had to click to the end of the sentence, even when the figure I clicked was the correct one.",Chrome,Mac,900,1440,19.83985,
127,List1,Filler,,BoyOneSusanApples,,,2,8,one,,AOI1,AOI7,one,,37,33-33,Susan's,,Click on the boy that has one of Susan's apples,1,1_apple,girl,3_pears,3_bananas,3_oranges,2_apples,0,boy,boy,girl,,,,,,,,boy with one apple,3224,fruit,small,,1,7,,boy,,1_apple,40,[],21,,2,1,Yes,Female,English,"I always had to click to the end of the sentence, even when the figure I clicked was the correct one.",Chrome,Mac,900,1440,19.83985,
127,List1,Filler,,GirlFourSusanOranges,,,4,10,four,,AOI3,AOI9,four,,45,44-22,Susan's,,Click on the girl that has four of Susan's oranges,1,2_pears,girl,3_apples,4_oranges,1_banana,1_banana,1_apple,boy,boy,girl,,,,,,,,girl with four oranges,9848,fruit,big,,3,9,,girl,,4_oranges,41,[],21,,2,1,Yes,Female,English,"I always had to click to the end of the sentence, even when the figure I clicked was the correct one.",Chrome,Mac,900,1440,19.83985,
127,List1,Exp,,GirlTwoSusanBananas,,,3,9,num,,AOI4,AOI10,two,,5,33-33,Susan's,,Click on the girl that has two of Susan's bananas,1,2_pears,girl,3_apples,3_oranges,2_bananas,1_banana,1_pear,boy,boy,girl,,,,,,,,girl with two bananas,13293,fruit,small,,4,10,,girl,,2_bananas,42,[],21,,2,1,Yes,Female,English,"I always had to click to the end of the sentence, even when the figure I clicked was the correct one.",Chrome,Mac,900,1440,19.83985,
127,List1,Exp,,GirlAllMichaelErasers,,,4,10,all,,AOI3,AOI9,all,,26,44-22,Michael's,,Click on the girl that has all of Michael's erasers,1,3_pencils,girl,2_scissors,2_erasers,3_rulers,1_pencil,1_ruler,boy,boy,girl,,,,,,,,girl with two erasers,9109,stationeries,small,,3,9,,girl,,2_erasers,43,[],21,,2,1,Yes,Female,English,"I always had to click to the end of the sentence, even when the figure I clicked was the correct one.",Chrome,Mac,900,1440,19.83985,
