,workerid,proliferate.condition,ExpFiller,Intro_object,Prime,Res_object,competitor1,competitor2,condition,condition1,correctAns1,correctAns2,determiner,determiner1,displayID,display_type,figure,instruction1,instruction3,list,location1,location10,location2,location3,location4,location5,location6,location7,location8,location9,object1,object2,object3,object4,practiceTrialType,practice_trial_number,prime,response,response_times,setting,size,size1,target1,target2,target_figure1,target_figure3,target_object1,target_object3,trial_number,error,genderUsed,correctGender,correctNoun,detUsed,correctDet
0,54,List1,Prac,kitchware_Amy_Monday,,Residue_kitchen,4,,,num,AOI3,AOI9,,three,5,44-22,Amy,Click on the girl that has three of Amy's knives,,,2_spoons,girl,3_forks,3_knives,2_plates,1_fork,1_knife,boy,boy,girl,knives,D4_forks,D2_spoons,D4_knives,production practice,1.0,GirlThreeAmyknives,girl with three knives,,kitchenwares,,big,3,,girl,,3_knives,,,,girl,0,0,three,0
1,54,List1,Prac,kitchware_Amy_Tuesday,,Slience,2,,,some,AOI4,AOI10,,some,6,33-33,Amy,Click on the girl that has some of Amy's forks,,,3_spoons,girl,2_knives,3_plates,2_forks,1_fork,1_knife,boy,boy,girl,forks,D3_forks,D3_spoons,D3_knives,production practice,2.0,GirlSomeAmyforks,girl with two forks,,kitchenwares,,big,4,,girl,,2_forks,,,,girl,0,0,two,0
2,54,List1,Exp,,BoySomeSusanPears,,2,8.0,some,,AOI1,AOI7,some,,1,33-33,Susan's,,Click on the boy that has some of Susan's pears,1.0,2_pears,girl,3_bananas,2_apples,3_oranges,1_apple,1_pear,boy,boy,girl,,,,,,,,child with the two green pears,18672.0,fruit,small,,1,7.0,,boy,,2_pears,1.0,,noGender,1,1,two,1
3,54,List1,Exp,,GirlAllAmySpoons,,4,10.0,all,,AOI3,AOI9,all,,36,44-22,Amy's,,Click on the girl that has all of Amy's spoons,1.0,3_plates,girl,2_knives,2_spoons,3_forks,1_plate,1_fork,boy,boy,girl,,,,,,,,child with the spoons,12474.0,kitchenwares,small,,3,9.0,,girl,,2_spoons,2.0,,noGender,1,1,noDet,1
4,54,List1,Exp,,GirlAllAmyPlates,,3,9.0,all,,AOI4,AOI10,all,,35,44-22,Amy's,,Click on the girl that has all of Amy's plates,1.0,3_spoons,girl,2_forks,3_knives,2_plates,1_spoon,1_knife,boy,boy,girl,,,,,,,,child with the plates,13014.0,kitchenwares,small,,4,10.0,,girl,,2_plates,3.0,,noGender,1,1,noDet,1
5,54,List1,Exp,,BoyAllMichaelScissors,,2,8.0,all,,AOI1,AOI7,all,,7,33-33,Michael's,,Click on the boy that has all of Michael's scissors,1.0,3_scissors,girl,2_pencils,3_erasers,2_rulers,1_pencil,1_ruler,boy,boy,girl,,,,,,,,child with three scissors,23751.0,stationeries,big,,1,7.0,,boy,,3_scissors,4.0,,noGender,1,1,three,1
6,54,List1,Exp,,BoyThreeMichaelErasers,,1,7.0,num,,AOI2,AOI8,three,,27,44-22,Michael's,,Click on the boy that has three of Michael's erasers,1.0,2_rulers,girl,3_erasers,2_scissors,3_pencils,1_pencil,1_eraser,boy,boy,girl,,,,,,,,child with three erasers,5968.0,stationeries,big,,2,8.0,,boy,,3_erasers,5.0,,noGender,1,1,three,1
7,54,List1,Filler,,GirlOneSusanPears,,3,9.0,one,,AOI4,AOI10,one,,42,33-33,Susan's,,Click on the girl that has one of Susan's pears,1.0,3_bananas,girl,3_oranges,3_apples,1_pear,2_pears,0,boy,boy,girl,,,,,,,,child with one pear,4737.0,fruit,small,,4,10.0,,girl,,1_pear,6.0,,noGender,1,1,one,1
8,54,List1,Exp,,GirlSomeAmyForks,,4,10.0,some,,AOI3,AOI9,some,,34,44-22,Amy's,,Click on the girl that has some of Amy's forks,1.0,2_spoons,girl,3_plates,3_forks,2_knives,1_fork,1_plate,boy,boy,girl,,,,,,,,child with three forks,4941.0,kitchenwares,big,,3,9.0,,girl,,3_forks,7.0,,noGender,1,1,three,1
9,54,List1,Filler,,GirlFourSusanOranges,,4,10.0,four,,AOI3,AOI9,four,,45,44-22,Susan's,,Click on the girl that has four of Susan's oranges,1.0,2_pears,girl,3_apples,4_oranges,1_banana,1_banana,1_apple,boy,boy,girl,,,,,,,,child with four oranges,5345.0,fruit,big,,3,9.0,,girl,,4_oranges,8.0,,noGender,1,1,four,1
10,54,List1,Exp,,GirlSomeSusanApples,,4,10.0,some,,AOI3,AOI9,some,,20,44-22,Susan's,,Click on the girl that has some of Susan's apples,1.0,3_pears,girl,2_bananas,3_apples,2_oranges,1_apple,1_pear,boy,boy,girl,,,,,,,,child with three apples,9816.0,fruit,big,,3,9.0,,girl,,3_apples,9.0,,noGender,1,1,three,1
11,54,List1,Exp,,GirlSomeMichaelRulers,,3,9.0,some,,AOI4,AOI10,some,,30,44-22,Michael's,,Click on the girl that has some of Michael's rulers,1.0,3_erasers,girl,2_pencils,2_scissors,3_rulers,1_ruler,1_eraser,boy,boy,girl,,,,,,,,child with three rulers,4455.0,stationeries,big,,4,10.0,,girl,,3_rulers,10.0,,noGender,1,1,three,1
12,54,List1,Exp,,BoyTwoSusanApples,,2,8.0,num,,AOI1,AOI7,two,,24,44-22,Susan's,,Click on the boy that has two of Susan's apples,1.0,2_apples,girl,3_pears,3_bananas,2_oranges,1_banana,1_pear,boy,boy,girl,,,,,,,,child with two apples,4768.0,fruit,small,,1,7.0,,boy,,2_apples,11.0,,noGender,1,1,two,1
13,54,List1,Filler,,GirlFourMichaelPencils,,3,9.0,four,,AOI4,AOI10,four,,48,44-22,Michael's,,Click on the girl that has four of Michael's pencils,1.0,1_ruler,girl,2_erasers,3_scissors,4_pencils,1_ruler,1_scissor,boy,boy,girl,,,,,,,,child with four pens,6841.0,stationeries,big,,4,10.0,,girl,,4_pencils,12.0,,noGender,1,0,four,1
14,54,List1,Exp,,BoyThreeAmyKnives,,1,7.0,num,,AOI2,AOI8,three,,14,33-33,Amy's,,Click on the boy that has three of Amy's knives,1.0,2_spoons,girl,3_knives,2_plates,3_forks,1_spoon,1_plate,boy,boy,girl,,,,,,,,child with three knives,5152.0,kitchenwares,big,,2,8.0,,boy,,3_knives,13.0,,noGender,1,1,three,1
15,54,List1,Exp,,GirlThreeSusanPears,,3,9.0,num,,AOI4,AOI10,three,,6,33-33,Susan's,,Click on the girl that has three of Susan's pears,1.0,2_oranges,girl,3_bananas,2_apples,3_pears,1_apple,1_orange,boy,boy,girl,,,,,,,,child with three pears,6560.0,fruit,big,,4,10.0,,girl,,3_pears,14.0,,noGender,1,1,three,1
16,54,List1,Exp,,GirlThreeSusanOranges,,4,10.0,num,,AOI3,AOI9,three,,23,44-22,Susan's,,Click on the girl that has three of Susan's oranges,1.0,3_apples,girl,2_pears,3_oranges,2_bananas,1_apple,1_orange,boy,boy,girl,,,,,,,,child with three oranges,5287.0,fruit,big,,3,9.0,,girl,,3_oranges,15.0,,noGender,1,1,three,1
17,54,List1,Exp,,GirlTwoSusanBananas,,3,9.0,num,,AOI4,AOI10,two,,5,33-33,Susan's,,Click on the girl that has two of Susan's bananas,1.0,2_pears,girl,3_apples,3_oranges,2_bananas,1_banana,1_pear,boy,boy,girl,,,,,,,,child with two bananas,4376.0,fruit,small,,4,10.0,,girl,,2_bananas,16.0,,noGender,1,1,two,1
18,54,List1,Filler,,GirlFourAmyKnives,,4,10.0,four,,AOI3,AOI9,four,,46,44-22,Amy's,,Click on the girl that has four of Amy's knives,1.0,1_spoon,girl,3_plates,4_knives,2_forks,1_spoon,1_plate,boy,boy,girl,,,,,,,,child with four knives,4361.0,kitchenwares,big,,3,9.0,,girl,,4_knives,17.0,,noGender,1,1,four,1
19,54,List1,Filler,,GirlOneMichaelErasers,,4,10.0,one,,AOI3,AOI9,one,,41,33-33,Michael's,,Click on the girl that has one of Michael's erasers,1.0,3_pencils,girl,3_scissors,1_eraser,3_rulers,2_erasers,0,boy,boy,girl,,,,,,,,child with one eraser,4615.0,stationeries,small,,3,9.0,,girl,,1_eraser,18.0,,noGender,1,1,one,1
20,54,List1,Exp,,BoyTwoMichaelPencils,,1,7.0,num,,AOI2,AOI8,two,,28,44-22,Michael's,,Click on the boy that has two of Michael's pencils,1.0,3_scissors,girl,2_pencils,2_erasers,3_rulers,1_ruler,1_scissor,boy,boy,girl,,,,,,,,child with two pens,2599.0,stationeries,small,,2,8.0,,boy,,2_pencils,19.0,,noGender,1,0,two,1
21,54,List1,Exp,,BoyAllAmyKnives,,2,8.0,all,,AOI1,AOI7,all,,18,33-33,Amy's,,Click on the boy that has all of Amy's knives,1.0,3_knives,girl,2_plates,3_spoons,2_forks,1_plate,1_fork,boy,boy,girl,,,,,,,,child with three knives,5713.0,kitchenwares,big,,1,7.0,,boy,,3_knives,20.0,,noGender,1,1,three,1
22,54,List1,Exp,,GirlAllSusanBananas,,4,10.0,all,,AOI3,AOI9,all,,4,33-33,Susan's,,Click on the girl that has all of Susan's bananas,1.0,2_pears,girl,3_apples,3_bananas,2_oranges,1_orange,1_pear,boy,boy,girl,,,,,,,,child with three bananas,6903.0,fruit,big,,3,9.0,,girl,,3_bananas,21.0,,noGender,1,1,three,1
23,54,List1,Filler,,BoyOneAmyPlates,,2,8.0,one,,AOI1,AOI7,one,,38,33-33,Amy's,,Click on the boy that has one of Amy's plates,1.0,1_plate,girl,3_knives,3_forks,3_spoons,2_plates,0,boy,boy,girl,,,,,,,,child with one plate,3240.0,kitchenwares,small,,1,7.0,,boy,,1_plate,22.0,,noGender,1,1,one,1
24,54,List1,Filler,,GirlFourAmyPlates,,3,9.0,four,,AOI4,AOI10,four,,47,44-22,Amy's,,Click on the girl that has four of Amy's plates,1.0,1_knife,girl,3_forks,2_spoons,4_plates,1_knife,1_fork,boy,boy,girl,,,,,,,,child with four plates,3784.0,kitchenwares,big,,4,10.0,,girl,,4_plates,23.0,,noGender,1,1,four,1
25,54,List1,Exp,,BoySomeMichaelErasers,,2,8.0,some,,AOI1,AOI7,some,,11,33-33,Michael's,,Click on the boy that has some of Michael's erasers,1.0,2_erasers,girl,3_pencils,2_rulers,3_scissors,1_ruler,1_eraser,boy,boy,girl,,,,,,,,child with two erasers,6418.0,stationeries,small,,1,7.0,,boy,,2_erasers,24.0,,noGender,1,1,two,1
26,54,List1,Exp,,BoySomeMichaelPencils,,2,8.0,some,,AOI1,AOI7,some,,29,44-22,Michael's,,Click on the boy that has some of Michael's pencils,1.0,3_pencils,girl,2_erasers,3_scissors,2_rulers,1_pencil,1_scissor,boy,boy,girl,,,,,,,,child with three pens,3414.0,stationeries,big,,1,7.0,,boy,,3_pencils,25.0,,noGender,1,0,three,1
27,54,List1,Exp,,GirlAllMichaelErasers,,4,10.0,all,,AOI3,AOI9,all,,26,44-22,Michael's,,Click on the girl that has all of Michael's erasers,1.0,3_pencils,girl,2_scissors,2_erasers,3_rulers,1_pencil,1_ruler,boy,boy,girl,,,,,,,,child with two erasers,5633.0,stationeries,small,,3,9.0,,girl,,2_erasers,26.0,,noGender,1,1,two,1
28,54,List1,Exp,,BoyThreeAmyPlates,,2,8.0,num,,AOI1,AOI7,three,,31,44-22,Amy's,,Click on the boy that has three of Amy's plates,1.0,3_plates,girl,2_forks,3_spoons,2_knives,1_spoon,1_plate,boy,boy,girl,,,,,,,,child with three plates,3815.0,kitchenwares,big,,1,7.0,,boy,,3_plates,27.0,,noGender,1,1,three,1
29,54,List1,Exp,,BoyAllSusanApples,,2,8.0,all,,AOI1,AOI7,all,,22,44-22,Susan's,,Click on the boy that has all of Susan's apples,1.0,2_apples,girl,3_pears,3_oranges,2_bananas,1_orange,1_pear,boy,boy,girl,,,,,,,,child with two apples,5784.0,fruit,small,,1,7.0,,boy,,2_apples,28.0,,noGender,1,1,two,1
30,54,List1,Exp,,GirlSomeAmyKnives,,4,10.0,some,,AOI3,AOI9,some,,15,33-33,Amy's,,Click on the girl that has some of Amy's knives,1.0,2_spoons,girl,3_plates,2_knives,3_forks,1_spoon,1_knife,boy,boy,girl,,,,,,,,child with two nives,3240.0,kitchenwares,small,,3,9.0,,girl,,2_knives,29.0,,noGender,1,0,two,1
31,54,List1,Exp,,BoyTwoAmySpoons,,2,8.0,num,,AOI1,AOI7,two,,32,44-22,Amy's,,Click on the boy that has two of Amy's spoons,1.0,2_spoons,girl,3_knives,3_forks,2_plates,1_fork,1_knife,boy,boy,girl,,,,,,,,child with two spoons,5033.0,kitchenwares,small,,1,7.0,,boy,,2_spoons,30.0,,noGender,1,1,two,1
32,54,List1,Filler,,BoyOneSusanApples,,2,8.0,one,,AOI1,AOI7,one,,37,33-33,Susan's,,Click on the boy that has one of Susan's apples,1.0,1_apple,girl,3_pears,3_bananas,3_oranges,2_apples,0,boy,boy,girl,,,,,,,,child with one apple,5207.0,fruit,small,,1,7.0,,boy,,1_apple,31.0,,noGender,1,1,one,1
33,54,List1,Exp,,BoySomeAmySpoons,,1,7.0,some,,AOI2,AOI8,some,,33,44-22,Amy's,,Click on the boy that has some of Amy's spoons,1.0,2_plates,girl,3_spoons,2_forks,3_knives,1_spoon,1_knife,boy,boy,girl,,,,,,,,child with three spoons,3553.0,kitchenwares,big,,2,8.0,,boy,,3_spoons,32.0,,noGender,1,1,three,1
34,54,List1,Exp,,BoySomeSusanOranges,,1,7.0,some,,AOI2,AOI8,some,,2,33-33,Susan's,,Click on the boy that has some of Susan's oranges,1.0,3_apples,girl,2_oranges,2_bananas,3_pears,1_banana,1_orange,boy,boy,girl,,,,,,,,child with two oranges,3632.0,fruit,small,,2,8.0,,boy,,2_oranges,33.0,,noGender,1,1,two,1
35,54,List1,Exp,,BoySomeMichaelScissors,,1,7.0,some,,AOI2,AOI8,some,,12,33-33,Michael's,,Click on the boy that has some of Michael's scissors,1.0,3_rulers,girl,2_scissors,2_pencils,3_erasers,1_pencil,1_scissor,boy,boy,girl,,,,,,,,child with two scissors,4719.0,stationeries,small,,2,8.0,,boy,,2_scissors,34.0,,noGender,1,1,two,1
36,54,List1,Exp,,GirlAllMichaelRulers,,3,9.0,all,,AOI4,AOI10,all,,8,33-33,Michael's,,Click on the girl that has all of Michael's rulers,1.0,2_scissors,girl,3_pencils,2_erasers,3_rulers,1_eraser,1_scissor,boy,boy,girl,,,,,,,,three rulers,3536.0,stationeries,big,,4,10.0,,girl,,3_rulers,35.0,,noGender,1,1,three,1
37,54,List1,Exp,,GirlAllMichaelPencils,,3,9.0,all,,AOI4,AOI10,all,,25,44-22,Michael's,,Click on the girl that has all of Michael's pencils,1.0,3_erasers,girl,2_rulers,3_scissors,2_pencils,1_eraser,1_scissor,boy,boy,girl,,,,,,,,child with two pens,4632.0,stationeries,small,,4,10.0,,girl,,2_pencils,36.0,,noGender,1,0,two,1
38,54,List1,Exp,,GirlThreeMichaelScissors,,4,10.0,num,,AOI3,AOI9,three,,10,33-33,Michael's,,Click on the girl that has three of Michael's scissors,1.0,3_rulers,girl,2_erasers,3_scissors,2_pencils,1_pencil,1_eraser,boy,boy,girl,,,,,,,,child with three scissors,6961.0,stationeries,big,,3,9.0,,girl,,3_scissors,37.0,,noGender,1,1,three,1
39,54,List1,Exp,,BoyAllSusanOranges,,1,7.0,all,,AOI2,AOI8,all,,21,44-22,Susan's,,Click on the boy that has all of Susan's oranges,1.0,3_bananas,girl,2_oranges,3_apples,2_pears,1_apple,1_banana,boy,boy,girl,,,,,,,,child with two oranges,3639.0,fruit,small,,2,8.0,,boy,,2_oranges,38.0,,noGender,1,1,two,1
40,54,List1,Filler,,BoyFourSusanBananas,,1,7.0,four,,AOI2,AOI8,four,,44,44-22,Susan's,,Click on the boy that has four of Susan's bananas,1.0,1_orange,girl,4_bananas,3_pears,2_apples,1_orange,1_pear,boy,boy,girl,,,,,,,,child with four bananas,4441.0,fruit,big,,2,8.0,,boy,,4_bananas,39.0,,noGender,1,1,four,1
41,54,List1,Exp,,GirlSomeSusanBananas,,3,9.0,some,,AOI4,AOI10,some,,19,44-22,Susan's,,Click on the girl that has some of Susan's bananas,1.0,3_oranges,girl,2_apples,2_pears,3_bananas,1_banana,1_orange,boy,boy,girl,,,,,,,,child with three bananas,5793.0,fruit,big,,4,10.0,,girl,,3_bananas,40.0,,noGender,1,1,three,1
42,54,List1,Exp,,BoyAllSusanPears,,1,7.0,all,,AOI2,AOI8,all,,3,33-33,Susan's,,Click on the boy that has all of Susan's pears,1.0,2_apples,girl,3_pears,2_bananas,3_oranges,1_apple,1_banana,boy,boy,girl,,,,,,,,child with 3 pears,5327.0,fruit,big,,2,8.0,,boy,,3_pears,41.0,,noGender,1,1,three,1
43,54,List1,Exp,,GirlSomeAmyPlates,,3,9.0,some,,AOI4,AOI10,some,,16,33-33,Amy's,,Click on the girl that has some of Amy's plates,1.0,2_forks,girl,3_knives,3_spoons,2_plates,1_fork,1_plate,boy,boy,girl,,,,,,,,child with 2 plates,8336.0,kitchenwares,small,,4,10.0,,girl,,2_plates,42.0,,noGender,1,1,two,1
44,54,List1,Exp,,GirlTwoMichaelRulers,,4,10.0,num,,AOI3,AOI9,two,,9,33-33,Michael's,,Click on the girl that has two of Michael's rulers,1.0,3_pencils,girl,2_scissors,2_rulers,3_erasers,1_ruler,1_scissor,boy,boy,girl,,,,,,,,child with two rulers,6064.0,stationeries,small,,3,9.0,,girl,,2_rulers,43.0,,noGender,1,1,two,1
45,54,List1,Exp,,BoyAllAmyForks,,1,7.0,all,,AOI2,AOI8,all,,17,33-33,Amy's,,Click on the boy that has all of Amy's forks,1.0,2_spoons,girl,3_forks,2_knives,3_plates,1_spoon,1_knife,boy,boy,girl,,,,,,,,child with 3 forks,3384.0,kitchenwares,big,,2,8.0,,boy,,3_forks,44.0,,noGender,1,1,three,1
46,54,List1,Filler,,BoyFourMichaelScissors,,2,8.0,four,,AOI1,AOI7,four,,43,44-22,Michael's,,Click on the boy that has four of Michael's scissors,1.0,4_scissors,girl,1_pencil,2_rulers,3_erasers,1_pencil,1_eraser,boy,boy,girl,,,,,,,,child with 4 scissors,4815.0,stationeries,big,,1,7.0,,boy,,4_scissors,45.0,,noGender,1,1,four,1
47,54,List1,Filler,,BoyOneAmySpoons,,1,7.0,one,,AOI2,AOI8,one,,39,33-33,Amy's,,Click on the boy that has one of Amy's spoons,1.0,3_forks,girl,1_spoon,3_plates,3_knives,2_spoons,0,boy,boy,girl,,,,,,,,child with the spoon,4968.0,kitchenwares,small,,2,8.0,,boy,,1_spoon,46.0,,noGender,1,1,noDet,1
48,54,List1,Filler,,BoyOneMichaelRulers,,1,7.0,one,,AOI2,AOI8,one,,40,33-33,Michael's,,Click on the boy that has one of Michael's rulers,1.0,3_erasers,girl,1_ruler,3_pencils,3_scissors,2_scissors,0,boy,boy,girl,,,,,,,,child with the ruler,5520.0,stationeries,small,,2,8.0,,boy,,1_ruler,47.0,,noGender,1,1,noDet,1
49,54,List1,Exp,,GirlTwoAmyForks,,3,9.0,num,,AOI4,AOI10,two,,13,33-33,Amy's,,Click on the girl that has two of Amy's forks,1.0,2_knives,girl,3_spoons,3_plates,2_forks,1_fork,1_knife,boy,boy,girl,,,,,,,,child with two forks,6576.0,kitchenwares,small,,4,10.0,,girl,,2_forks,48.0,,noGender,1,1,two,1
50,63,List1,Prac,kitchware_Amy_Monday,,Residue_kitchen,4,,,num,AOI3,AOI9,,three,5,44-22,Amy,Click on the girl that has three of Amy's knives,,,2_spoons,girl,3_forks,3_knives,2_plates,1_fork,1_knife,boy,boy,girl,knives,D4_forks,D2_spoons,D4_knives,production practice,1.0,GirlThreeAmyknives,girl with the knives,,kitchenwares,,big,3,,girl,,3_knives,,,,girl,0,0,noDet,1
51,63,List1,Prac,kitchware_Amy_Tuesday,,Slience,2,,,some,AOI4,AOI10,,some,6,33-33,Amy,Click on the girl that has some of Amy's forks,,,3_spoons,girl,2_knives,3_plates,2_forks,1_fork,1_knife,boy,boy,girl,forks,D3_forks,D3_spoons,D3_knives,production practice,2.0,GirlSomeAmyforks,girl with the forks,,kitchenwares,,big,4,,girl,,2_forks,,,,girl,0,0,noDet,1
52,63,List1,Filler,,BoyOneAmySpoons,,1,7.0,one,,AOI2,AOI8,one,,39,33-33,Amy's,,Click on the boy that has one of Amy's spoons,1.0,3_forks,girl,1_spoon,3_plates,3_knives,2_spoons,0,boy,boy,girl,,,,,,,,boy with spoon,4878.0,kitchenwares,small,,2,8.0,,boy,,1_spoon,1.0,,boy,1,1,noDet,1
53,63,List1,Exp,,GirlAllAmyPlates,,3,9.0,all,,AOI4,AOI10,all,,35,44-22,Amy's,,Click on the girl that has all of Amy's plates,1.0,3_spoons,girl,2_forks,3_knives,2_plates,1_spoon,1_knife,boy,boy,girl,,,,,,,,girl with plates,3723.0,kitchenwares,small,,4,10.0,,girl,,2_plates,2.0,,girl,1,1,noDet,1
54,63,List1,Exp,,BoyThreeAmyKnives,,1,7.0,num,,AOI2,AOI8,three,,14,33-33,Amy's,,Click on the boy that has three of Amy's knives,1.0,2_spoons,girl,3_knives,2_plates,3_forks,1_spoon,1_plate,boy,boy,girl,,,,,,,,boy with knives,2764.0,kitchenwares,big,,2,8.0,,boy,,3_knives,3.0,,boy,1,1,noDet,1
55,63,List1,Exp,,BoyAllAmyForks,,1,7.0,all,,AOI2,AOI8,all,,17,33-33,Amy's,,Click on the boy that has all of Amy's forks,1.0,2_spoons,girl,3_forks,2_knives,3_plates,1_spoon,1_knife,boy,boy,girl,,,,,,,,boy with forks,2143.0,kitchenwares,big,,2,8.0,,boy,,3_forks,4.0,,boy,1,1,noDet,1
56,63,List1,Exp,,GirlSomeAmyKnives,,4,10.0,some,,AOI3,AOI9,some,,15,33-33,Amy's,,Click on the girl that has some of Amy's knives,1.0,2_spoons,girl,3_plates,2_knives,3_forks,1_spoon,1_knife,boy,boy,girl,,,,,,,,girl with knives,2409.0,kitchenwares,small,,3,9.0,,girl,,2_knives,5.0,,girl,1,1,noDet,1
57,63,List1,Exp,,BoySomeMichaelScissors,,1,7.0,some,,AOI2,AOI8,some,,12,33-33,Michael's,,Click on the boy that has some of Michael's scissors,1.0,3_rulers,girl,2_scissors,2_pencils,3_erasers,1_pencil,1_scissor,boy,boy,girl,,,,,,,,boy with scissors,3433.0,stationeries,small,,2,8.0,,boy,,2_scissors,6.0,,boy,1,1,noDet,1
58,63,List1,Filler,,BoyOneMichaelRulers,,1,7.0,one,,AOI2,AOI8,one,,40,33-33,Michael's,,Click on the boy that has one of Michael's rulers,1.0,3_erasers,girl,1_ruler,3_pencils,3_scissors,2_scissors,0,boy,boy,girl,,,,,,,,boy with ruler,2345.0,stationeries,small,,2,8.0,,boy,,1_ruler,7.0,,boy,1,1,noDet,1
59,63,List1,Exp,,GirlAllMichaelRulers,,3,9.0,all,,AOI4,AOI10,all,,8,33-33,Michael's,,Click on the girl that has all of Michael's rulers,1.0,2_scissors,girl,3_pencils,2_erasers,3_rulers,1_eraser,1_scissor,boy,boy,girl,,,,,,,,girl with rulers,2598.0,stationeries,big,,4,10.0,,girl,,3_rulers,8.0,,girl,1,1,noDet,1
60,63,List1,Filler,,GirlOneMichaelErasers,,4,10.0,one,,AOI3,AOI9,one,,41,33-33,Michael's,,Click on the girl that has one of Michael's erasers,1.0,3_pencils,girl,3_scissors,1_eraser,3_rulers,2_erasers,0,boy,boy,girl,,,,,,,,girl with erasers,3287.0,stationeries,small,,3,9.0,,girl,,1_eraser,9.0,,girl,1,1,noDet,1
61,63,List1,Exp,,GirlSomeAmyPlates,,3,9.0,some,,AOI4,AOI10,some,,16,33-33,Amy's,,Click on the girl that has some of Amy's plates,1.0,2_forks,girl,3_knives,3_spoons,2_plates,1_fork,1_plate,boy,boy,girl,,,,,,,,girl with plates,2721.0,kitchenwares,small,,4,10.0,,girl,,2_plates,10.0,,girl,1,1,noDet,1
62,63,List1,Exp,,BoyThreeAmyPlates,,2,8.0,num,,AOI1,AOI7,three,,31,44-22,Amy's,,Click on the boy that has three of Amy's plates,1.0,3_plates,girl,2_forks,3_spoons,2_knives,1_spoon,1_plate,boy,boy,girl,,,,,,,,boy with plates,2511.0,kitchenwares,big,,1,7.0,,boy,,3_plates,11.0,,boy,1,1,noDet,1
63,63,List1,Exp,,BoyAllAmyKnives,,2,8.0,all,,AOI1,AOI7,all,,18,33-33,Amy's,,Click on the boy that has all of Amy's knives,1.0,3_knives,girl,2_plates,3_spoons,2_forks,1_plate,1_fork,boy,boy,girl,,,,,,,,boy with knives,2586.0,kitchenwares,big,,1,7.0,,boy,,3_knives,12.0,,boy,1,1,noDet,1
64,63,List1,Filler,,GirlFourMichaelPencils,,3,9.0,four,,AOI4,AOI10,four,,48,44-22,Michael's,,Click on the girl that has four of Michael's pencils,1.0,1_ruler,girl,2_erasers,3_scissors,4_pencils,1_ruler,1_scissor,boy,boy,girl,,,,,,,,girl with pencils,2487.0,stationeries,big,,4,10.0,,girl,,4_pencils,13.0,,girl,1,1,noDet,1
65,63,List1,Filler,,BoyOneAmyPlates,,2,8.0,one,,AOI1,AOI7,one,,38,33-33,Amy's,,Click on the boy that has one of Amy's plates,1.0,1_plate,girl,3_knives,3_forks,3_spoons,2_plates,0,boy,boy,girl,,,,,,,,boy with plate,2963.0,kitchenwares,small,,1,7.0,,boy,,1_plate,14.0,,boy,1,1,noDet,1
66,63,List1,Exp,,BoyAllSusanApples,,2,8.0,all,,AOI1,AOI7,all,,22,44-22,Susan's,,Click on the boy that has all of Susan's apples,1.0,2_apples,girl,3_pears,3_oranges,2_bananas,1_orange,1_pear,boy,boy,girl,,,,,,,,boy with apples,2338.0,fruit,small,,1,7.0,,boy,,2_apples,15.0,,boy,1,1,noDet,1
67,63,List1,Filler,,BoyFourSusanBananas,,1,7.0,four,,AOI2,AOI8,four,,44,44-22,Susan's,,Click on the boy that has four of Susan's bananas,1.0,1_orange,girl,4_bananas,3_pears,2_apples,1_orange,1_pear,boy,boy,girl,,,,,,,,boy with bananas,3642.0,fruit,big,,2,8.0,,boy,,4_bananas,16.0,,boy,1,1,noDet,1
68,63,List1,Exp,,GirlThreeMichaelScissors,,4,10.0,num,,AOI3,AOI9,three,,10,33-33,Michael's,,Click on the girl that has three of Michael's scissors,1.0,3_rulers,girl,2_erasers,3_scissors,2_pencils,1_pencil,1_eraser,boy,boy,girl,,,,,,,,girl with scissors,2731.0,stationeries,big,,3,9.0,,girl,,3_scissors,17.0,,girl,1,1,noDet,1
69,63,List1,Exp,,GirlSomeMichaelRulers,,3,9.0,some,,AOI4,AOI10,some,,30,44-22,Michael's,,Click on the girl that has some of Michael's rulers,1.0,3_erasers,girl,2_pencils,2_scissors,3_rulers,1_ruler,1_eraser,boy,boy,girl,,,,,,,,girl with rulers,2430.0,stationeries,big,,4,10.0,,girl,,3_rulers,18.0,,girl,1,1,noDet,1
70,63,List1,Exp,,BoyTwoSusanApples,,2,8.0,num,,AOI1,AOI7,two,,24,44-22,Susan's,,Click on the boy that has two of Susan's apples,1.0,2_apples,girl,3_pears,3_bananas,2_oranges,1_banana,1_pear,boy,boy,girl,,,,,,,,boy with apples,2108.0,fruit,small,,1,7.0,,boy,,2_apples,19.0,,boy,1,1,noDet,1
71,63,List1,Exp,,BoyAllMichaelScissors,,2,8.0,all,,AOI1,AOI7,all,,7,33-33,Michael's,,Click on the boy that has all of Michael's scissors,1.0,3_scissors,girl,2_pencils,3_erasers,2_rulers,1_pencil,1_ruler,boy,boy,girl,,,,,,,,boy with scissors,3229.0,stationeries,big,,1,7.0,,boy,,3_scissors,20.0,,boy,1,1,noDet,1
72,63,List1,Exp,,BoySomeSusanOranges,,1,7.0,some,,AOI2,AOI8,some,,2,33-33,Susan's,,Click on the boy that has some of Susan's oranges,1.0,3_apples,girl,2_oranges,2_bananas,3_pears,1_banana,1_orange,boy,boy,girl,,,,,,,,boy with oranges,3292.0,fruit,small,,2,8.0,,boy,,2_oranges,21.0,,boy,1,1,noDet,1
73,63,List1,Exp,,BoyTwoAmySpoons,,2,8.0,num,,AOI1,AOI7,two,,32,44-22,Amy's,,Click on the boy that has two of Amy's spoons,1.0,2_spoons,girl,3_knives,3_forks,2_plates,1_fork,1_knife,boy,boy,girl,,,,,,,,boy with spoon,2373.0,kitchenwares,small,,1,7.0,,boy,,2_spoons,22.0,,boy,1,1,noDet,1
74,63,List1,Exp,,GirlAllMichaelPencils,,3,9.0,all,,AOI4,AOI10,all,,25,44-22,Michael's,,Click on the girl that has all of Michael's pencils,1.0,3_erasers,girl,2_rulers,3_scissors,2_pencils,1_eraser,1_scissor,boy,boy,girl,,,,,,,,girl with pencils,2977.0,stationeries,small,,4,10.0,,girl,,2_pencils,23.0,,girl,1,1,noDet,1
75,63,List1,Exp,,GirlThreeSusanPears,,3,9.0,num,,AOI4,AOI10,three,,6,33-33,Susan's,,Click on the girl that has three of Susan's pears,1.0,2_oranges,girl,3_bananas,2_apples,3_pears,1_apple,1_orange,boy,boy,girl,,,,,,,,girl with pears,2210.0,fruit,big,,4,10.0,,girl,,3_pears,24.0,,girl,1,1,noDet,1
76,63,List1,Exp,,GirlTwoSusanBananas,,3,9.0,num,,AOI4,AOI10,two,,5,33-33,Susan's,,Click on the girl that has two of Susan's bananas,1.0,2_pears,girl,3_apples,3_oranges,2_bananas,1_banana,1_pear,boy,boy,girl,,,,,,,,girl with bananas,4255.0,fruit,small,,4,10.0,,girl,,2_bananas,25.0,,girl,1,1,noDet,1
77,63,List1,Exp,,GirlAllMichaelErasers,,4,10.0,all,,AOI3,AOI9,all,,26,44-22,Michael's,,Click on the girl that has all of Michael's erasers,1.0,3_pencils,girl,2_scissors,2_erasers,3_rulers,1_pencil,1_ruler,boy,boy,girl,,,,,,,,girl with erasers,2292.0,stationeries,small,,3,9.0,,girl,,2_erasers,26.0,,girl,1,1,noDet,1
78,63,List1,Exp,,BoySomeSusanPears,,2,8.0,some,,AOI1,AOI7,some,,1,33-33,Susan's,,Click on the boy that has some of Susan's pears,1.0,2_pears,girl,3_bananas,2_apples,3_oranges,1_apple,1_pear,boy,boy,girl,,,,,,,,boy with pears,1948.0,fruit,small,,1,7.0,,boy,,2_pears,27.0,,boy,1,1,noDet,1
79,63,List1,Exp,,BoySomeMichaelPencils,,2,8.0,some,,AOI1,AOI7,some,,29,44-22,Michael's,,Click on the boy that has some of Michael's pencils,1.0,3_pencils,girl,2_erasers,3_scissors,2_rulers,1_pencil,1_scissor,boy,boy,girl,,,,,,,,boy with pencils,2595.0,stationeries,big,,1,7.0,,boy,,3_pencils,28.0,,boy,1,1,noDet,1
80,63,List1,Exp,,GirlAllAmySpoons,,4,10.0,all,,AOI3,AOI9,all,,36,44-22,Amy's,,Click on the girl that has all of Amy's spoons,1.0,3_plates,girl,2_knives,2_spoons,3_forks,1_plate,1_fork,boy,boy,girl,,,,,,,,girl with spoons,2711.0,kitchenwares,small,,3,9.0,,girl,,2_spoons,29.0,,girl,1,1,noDet,1
81,63,List1,Filler,,GirlFourSusanOranges,,4,10.0,four,,AOI3,AOI9,four,,45,44-22,Susan's,,Click on the girl that has four of Susan's oranges,1.0,2_pears,girl,3_apples,4_oranges,1_banana,1_banana,1_apple,boy,boy,girl,,,,,,,,girl with oranges,2922.0,fruit,big,,3,9.0,,girl,,4_oranges,30.0,,girl,1,1,noDet,1
82,63,List1,Filler,,BoyOneSusanApples,,2,8.0,one,,AOI1,AOI7,one,,37,33-33,Susan's,,Click on the boy that has one of Susan's apples,1.0,1_apple,girl,3_pears,3_bananas,3_oranges,2_apples,0,boy,boy,girl,,,,,,,,boy with apple,2064.0,fruit,small,,1,7.0,,boy,,1_apple,31.0,,boy,1,1,noDet,1
83,63,List1,Filler,,GirlFourAmyKnives,,4,10.0,four,,AOI3,AOI9,four,,46,44-22,Amy's,,Click on the girl that has four of Amy's knives,1.0,1_spoon,girl,3_plates,4_knives,2_forks,1_spoon,1_plate,boy,boy,girl,,,,,,,,girl with knives,3490.0,kitchenwares,big,,3,9.0,,girl,,4_knives,32.0,,girl,1,1,noDet,1
84,63,List1,Filler,,GirlOneSusanPears,,3,9.0,one,,AOI4,AOI10,one,,42,33-33,Susan's,,Click on the girl that has one of Susan's pears,1.0,3_bananas,girl,3_oranges,3_apples,1_pear,2_pears,0,boy,boy,girl,,,,,,,,girl with pear,2289.0,fruit,small,,4,10.0,,girl,,1_pear,33.0,,girl,1,1,noDet,1
85,63,List1,Exp,,BoySomeMichaelErasers,,2,8.0,some,,AOI1,AOI7,some,,11,33-33,Michael's,,Click on the boy that has some of Michael's erasers,1.0,2_erasers,girl,3_pencils,2_rulers,3_scissors,1_ruler,1_eraser,boy,boy,girl,,,,,,,,boy with erasers,2879.0,stationeries,small,,1,7.0,,boy,,2_erasers,34.0,,boy,1,1,noDet,1
86,63,List1,Filler,,GirlFourAmyPlates,,3,9.0,four,,AOI4,AOI10,four,,47,44-22,Amy's,,Click on the girl that has four of Amy's plates,1.0,1_knife,girl,3_forks,2_spoons,4_plates,1_knife,1_fork,boy,boy,girl,,,,,,,,girl with plates,2648.0,kitchenwares,big,,4,10.0,,girl,,4_plates,35.0,,girl,1,1,noDet,1
87,63,List1,Filler,,BoyFourMichaelScissors,,2,8.0,four,,AOI1,AOI7,four,,43,44-22,Michael's,,Click on the boy that has four of Michael's scissors,1.0,4_scissors,girl,1_pencil,2_rulers,3_erasers,1_pencil,1_eraser,boy,boy,girl,,,,,,,,boy with scissors,3145.0,stationeries,big,,1,7.0,,boy,,4_scissors,36.0,,boy,1,1,noDet,1
88,63,List1,Exp,,GirlThreeSusanOranges,,4,10.0,num,,AOI3,AOI9,three,,23,44-22,Susan's,,Click on the girl that has three of Susan's oranges,1.0,3_apples,girl,2_pears,3_oranges,2_bananas,1_apple,1_orange,boy,boy,girl,,,,,,,,girl with oranges,1924.0,fruit,big,,3,9.0,,girl,,3_oranges,37.0,,girl,1,1,noDet,1
89,63,List1,Exp,,BoySomeAmySpoons,,1,7.0,some,,AOI2,AOI8,some,,33,44-22,Amy's,,Click on the boy that has some of Amy's spoons,1.0,2_plates,girl,3_spoons,2_forks,3_knives,1_spoon,1_knife,boy,boy,girl,,,,,,,,boy with spoons,2065.0,kitchenwares,big,,2,8.0,,boy,,3_spoons,38.0,,boy,1,1,noDet,1
90,63,List1,Exp,,GirlTwoAmyForks,,3,9.0,num,,AOI4,AOI10,two,,13,33-33,Amy's,,Click on the girl that has two of Amy's forks,1.0,2_knives,girl,3_spoons,3_plates,2_forks,1_fork,1_knife,boy,boy,girl,,,,,,,,girl with forks,2176.0,kitchenwares,small,,4,10.0,,girl,,2_forks,39.0,,girl,1,1,noDet,1
91,63,List1,Exp,,BoyAllSusanOranges,,1,7.0,all,,AOI2,AOI8,all,,21,44-22,Susan's,,Click on the boy that has all of Susan's oranges,1.0,3_bananas,girl,2_oranges,3_apples,2_pears,1_apple,1_banana,boy,boy,girl,,,,,,,,boy with oranges,2011.0,fruit,small,,2,8.0,,boy,,2_oranges,40.0,,boy,1,1,noDet,1
92,63,List1,Exp,,BoyThreeMichaelErasers,,1,7.0,num,,AOI2,AOI8,three,,27,44-22,Michael's,,Click on the boy that has three of Michael's erasers,1.0,2_rulers,girl,3_erasers,2_scissors,3_pencils,1_pencil,1_eraser,boy,boy,girl,,,,,,,,boy with erasers,3322.0,stationeries,big,,2,8.0,,boy,,3_erasers,41.0,,boy,1,1,noDet,1
93,63,List1,Exp,,GirlSomeAmyForks,,4,10.0,some,,AOI3,AOI9,some,,34,44-22,Amy's,,Click on the girl that has some of Amy's forks,1.0,2_spoons,girl,3_plates,3_forks,2_knives,1_fork,1_plate,boy,boy,girl,,,,,,,,girl with forks,2109.0,kitchenwares,big,,3,9.0,,girl,,3_forks,42.0,,girl,1,1,noDet,1
94,63,List1,Exp,,GirlSomeSusanBananas,,3,9.0,some,,AOI4,AOI10,some,,19,44-22,Susan's,,Click on the girl that has some of Susan's bananas,1.0,3_oranges,girl,2_apples,2_pears,3_bananas,1_banana,1_orange,boy,boy,girl,,,,,,,,girl with bananas,2581.0,fruit,big,,4,10.0,,girl,,3_bananas,43.0,,girl,1,1,noDet,1
95,63,List1,Exp,,BoyTwoMichaelPencils,,1,7.0,num,,AOI2,AOI8,two,,28,44-22,Michael's,,Click on the boy that has two of Michael's pencils,1.0,3_scissors,girl,2_pencils,2_erasers,3_rulers,1_ruler,1_scissor,boy,boy,girl,,,,,,,,boy with pencils,2332.0,stationeries,small,,2,8.0,,boy,,2_pencils,44.0,,boy,1,1,noDet,1
96,63,List1,Exp,,GirlTwoMichaelRulers,,4,10.0,num,,AOI3,AOI9,two,,9,33-33,Michael's,,Click on the girl that has two of Michael's rulers,1.0,3_pencils,girl,2_scissors,2_rulers,3_erasers,1_ruler,1_scissor,boy,boy,girl,,,,,,,,girl with rulers,3331.0,stationeries,small,,3,9.0,,girl,,2_rulers,45.0,,girl,1,1,noDet,1
97,63,List1,Exp,,GirlSomeSusanApples,,4,10.0,some,,AOI3,AOI9,some,,20,44-22,Susan's,,Click on the girl that has some of Susan's apples,1.0,3_pears,girl,2_bananas,3_apples,2_oranges,1_apple,1_pear,boy,boy,girl,,,,,,,,girl with apples,2571.0,fruit,big,,3,9.0,,girl,,3_apples,46.0,,girl,1,1,noDet,1
98,63,List1,Exp,,BoyAllSusanPears,,1,7.0,all,,AOI2,AOI8,all,,3,33-33,Susan's,,Click on the boy that has all of Susan's pears,1.0,2_apples,girl,3_pears,2_bananas,3_oranges,1_apple,1_banana,boy,boy,girl,,,,,,,,boy with pears,2421.0,fruit,big,,2,8.0,,boy,,3_pears,47.0,,boy,1,1,noDet,1
99,63,List1,Exp,,GirlAllSusanBananas,,4,10.0,all,,AOI3,AOI9,all,,4,33-33,Susan's,,Click on the girl that has all of Susan's bananas,1.0,2_pears,girl,3_apples,3_bananas,2_oranges,1_orange,1_pear,boy,boy,girl,,,,,,,,girl with bnanas,2172.0,fruit,big,,3,9.0,,girl,,3_bananas,48.0,,girl,1,0,noDet,1
100,58,List1,Prac,kitchware_Amy_Monday,,Residue_kitchen,4,,,num,AOI3,AOI9,,three,5,44-22,Amy,Click on the girl that has three of Amy's knives,,,2_spoons,girl,3_forks,3_knives,2_plates,1_fork,1_knife,boy,boy,girl,knives,D4_forks,D2_spoons,D4_knives,production practice,1.0,GirlThreeAmyknives,girl and three knives.,,kitchenwares,,big,3,,girl,,3_knives,,,,girl,0,0,three,0
101,58,List1,Prac,kitchware_Amy_Tuesday,,Slience,2,,,some,AOI4,AOI10,,some,6,33-33,Amy,Click on the girl that has some of Amy's forks,,,3_spoons,girl,2_knives,3_plates,2_forks,1_fork,1_knife,boy,boy,girl,forks,D3_forks,D3_spoons,D3_knives,production practice,2.0,GirlSomeAmyforks,girl and two forks.,,kitchenwares,,big,4,,girl,,2_forks,,,,girl,0,0,two,0
102,58,List1,Exp,,BoySomeAmySpoons,,1,7.0,some,,AOI2,AOI8,some,,33,44-22,Amy's,,Click on the boy that has some of Amy's spoons,1.0,2_plates,girl,3_spoons,2_forks,3_knives,1_spoon,1_knife,boy,boy,girl,,,,,,,,boy and three spoons,5250.0,kitchenwares,big,,2,8.0,,boy,,3_spoons,1.0,,boy,1,1,three,1
103,58,List1,Exp,,GirlSomeAmyForks,,4,10.0,some,,AOI3,AOI9,some,,34,44-22,Amy's,,Click on the girl that has some of Amy's forks,1.0,2_spoons,girl,3_plates,3_forks,2_knives,1_fork,1_plate,boy,boy,girl,,,,,,,,girl and three forks,4970.0,kitchenwares,big,,3,9.0,,girl,,3_forks,2.0,,girl,1,1,three,1
104,58,List1,Exp,,GirlTwoMichaelRulers,,4,10.0,num,,AOI3,AOI9,two,,9,33-33,Michael's,,Click on the girl that has two of Michael's rulers,1.0,3_pencils,girl,2_scissors,2_rulers,3_erasers,1_ruler,1_scissor,boy,boy,girl,,,,,,,,girl and two rulers,4718.0,stationeries,small,,3,9.0,,girl,,2_rulers,3.0,,girl,1,1,two,1
105,58,List1,Exp,,BoyAllSusanPears,,1,7.0,all,,AOI2,AOI8,all,,3,33-33,Susan's,,Click on the boy that has all of Susan's pears,1.0,2_apples,girl,3_pears,2_bananas,3_oranges,1_apple,1_banana,boy,boy,girl,,,,,,,,boy with three pairs,6555.0,fruit,big,,2,8.0,,boy,,3_pears,4.0,,boy,1,0,three,1
106,58,List1,Exp,,BoyAllSusanOranges,,1,7.0,all,,AOI2,AOI8,all,,21,44-22,Susan's,,Click on the boy that has all of Susan's oranges,1.0,3_bananas,girl,2_oranges,3_apples,2_pears,1_apple,1_banana,boy,boy,girl,,,,,,,,boy blushing and two oranges,5510.0,fruit,small,,2,8.0,,boy,,2_oranges,5.0,,boy,1,1,two,1
107,58,List1,Exp,,BoyAllAmyForks,,1,7.0,all,,AOI2,AOI8,all,,17,33-33,Amy's,,Click on the boy that has all of Amy's forks,1.0,2_spoons,girl,3_forks,2_knives,3_plates,1_spoon,1_knife,boy,boy,girl,,,,,,,,boy blushing and three forks,4668.0,kitchenwares,big,,2,8.0,,boy,,3_forks,6.0,,boy,1,1,three,1
108,58,List1,Exp,,GirlAllMichaelPencils,,3,9.0,all,,AOI4,AOI10,all,,25,44-22,Michael's,,Click on the girl that has all of Michael's pencils,1.0,3_erasers,girl,2_rulers,3_scissors,2_pencils,1_eraser,1_scissor,boy,boy,girl,,,,,,,,girl blushing and two penciils,8415.0,stationeries,small,,4,10.0,,girl,,2_pencils,7.0,,girl,1,0,two,1
109,58,List1,Filler,,BoyFourSusanBananas,,1,7.0,four,,AOI2,AOI8,four,,44,44-22,Susan's,,Click on the boy that has four of Susan's bananas,1.0,1_orange,girl,4_bananas,3_pears,2_apples,1_orange,1_pear,boy,boy,girl,,,,,,,,boy blushing and four bannanas.,7373.0,fruit,big,,2,8.0,,boy,,4_bananas,8.0,,boy,1,0,four,1
110,58,List1,Exp,,BoyAllMichaelScissors,,2,8.0,all,,AOI1,AOI7,all,,7,33-33,Michael's,,Click on the boy that has all of Michael's scissors,1.0,3_scissors,girl,2_pencils,3_erasers,2_rulers,1_pencil,1_ruler,boy,boy,girl,,,,,,,,"boy, and three scissors",7189.0,stationeries,big,,1,7.0,,boy,,3_scissors,9.0,,boy,1,1,three,1
111,58,List1,Exp,,GirlSomeAmyKnives,,4,10.0,some,,AOI3,AOI9,some,,15,33-33,Amy's,,Click on the girl that has some of Amy's knives,1.0,2_spoons,girl,3_plates,2_knives,3_forks,1_spoon,1_knife,boy,boy,girl,,,,,,,,girl blushing and two knives,5219.0,kitchenwares,small,,3,9.0,,girl,,2_knives,10.0,,girl,1,1,two,1
112,58,List1,Exp,,BoyThreeAmyPlates,,2,8.0,num,,AOI1,AOI7,three,,31,44-22,Amy's,,Click on the boy that has three of Amy's plates,1.0,3_plates,girl,2_forks,3_spoons,2_knives,1_spoon,1_plate,boy,boy,girl,,,,,,,,boy with three plates,8153.0,kitchenwares,big,,1,7.0,,boy,,3_plates,11.0,,boy,1,1,three,1
113,58,List1,Exp,,BoyThreeAmyKnives,,1,7.0,num,,AOI2,AOI8,three,,14,33-33,Amy's,,Click on the boy that has three of Amy's knives,1.0,2_spoons,girl,3_knives,2_plates,3_forks,1_spoon,1_plate,boy,boy,girl,,,,,,,,boy with three knives,3680.0,kitchenwares,big,,2,8.0,,boy,,3_knives,12.0,,boy,1,1,three,1
114,58,List1,Exp,,BoySomeSusanPears,,2,8.0,some,,AOI1,AOI7,some,,1,33-33,Susan's,,Click on the boy that has some of Susan's pears,1.0,2_pears,girl,3_bananas,2_apples,3_oranges,1_apple,1_pear,boy,boy,girl,,,,,,,,boy with two pears,3688.0,fruit,small,,1,7.0,,boy,,2_pears,13.0,,boy,1,1,two,1
115,58,List1,Exp,,GirlAllMichaelErasers,,4,10.0,all,,AOI3,AOI9,all,,26,44-22,Michael's,,Click on the girl that has all of Michael's erasers,1.0,3_pencils,girl,2_scissors,2_erasers,3_rulers,1_pencil,1_ruler,boy,boy,girl,,,,,,,,girl with two erasers,3782.0,stationeries,small,,3,9.0,,girl,,2_erasers,14.0,,girl,1,1,two,1
116,58,List1,Exp,,GirlThreeSusanPears,,3,9.0,num,,AOI4,AOI10,three,,6,33-33,Susan's,,Click on the girl that has three of Susan's pears,1.0,2_oranges,girl,3_bananas,2_apples,3_pears,1_apple,1_orange,boy,boy,girl,,,,,,,,girl with three pairs,10072.0,fruit,big,,4,10.0,,girl,,3_pears,15.0,,girl,1,0,three,1
117,58,List1,Filler,,GirlFourSusanOranges,,4,10.0,four,,AOI3,AOI9,four,,45,44-22,Susan's,,Click on the girl that has four of Susan's oranges,1.0,2_pears,girl,3_apples,4_oranges,1_banana,1_banana,1_apple,boy,boy,girl,,,,,,,,girl with four oranges,9816.0,fruit,big,,3,9.0,,girl,,4_oranges,16.0,,girl,1,1,four,1
118,58,List1,Exp,,GirlSomeAmyPlates,,3,9.0,some,,AOI4,AOI10,some,,16,33-33,Amy's,,Click on the girl that has some of Amy's plates,1.0,2_forks,girl,3_knives,3_spoons,2_plates,1_fork,1_plate,boy,boy,girl,,,,,,,,girl with two plates.,6110.0,kitchenwares,small,,4,10.0,,girl,,2_plates,17.0,,girl,1,1,two,1
119,58,List1,Filler,,BoyOneAmyPlates,,2,8.0,one,,AOI1,AOI7,one,,38,33-33,Amy's,,Click on the boy that has one of Amy's plates,1.0,1_plate,girl,3_knives,3_forks,3_spoons,2_plates,0,boy,boy,girl,,,,,,,,boy with one plate,4290.0,kitchenwares,small,,1,7.0,,boy,,1_plate,18.0,,boy,1,1,one,1
120,58,List1,Filler,,BoyOneAmySpoons,,1,7.0,one,,AOI2,AOI8,one,,39,33-33,Amy's,,Click on the boy that has one of Amy's spoons,1.0,3_forks,girl,1_spoon,3_plates,3_knives,2_spoons,0,boy,boy,girl,,,,,,,,boy with one spoon,3652.0,kitchenwares,small,,2,8.0,,boy,,1_spoon,19.0,,boy,1,1,one,1
121,58,List1,Exp,,BoyAllAmyKnives,,2,8.0,all,,AOI1,AOI7,all,,18,33-33,Amy's,,Click on the boy that has all of Amy's knives,1.0,3_knives,girl,2_plates,3_spoons,2_forks,1_plate,1_fork,boy,boy,girl,,,,,,,,boy with three knives,3121.0,kitchenwares,big,,1,7.0,,boy,,3_knives,20.0,,boy,1,1,three,1
122,58,List1,Exp,,BoySomeMichaelPencils,,2,8.0,some,,AOI1,AOI7,some,,29,44-22,Michael's,,Click on the boy that has some of Michael's pencils,1.0,3_pencils,girl,2_erasers,3_scissors,2_rulers,1_pencil,1_scissor,boy,boy,girl,,,,,,,,boy with three pencils,3406.0,stationeries,big,,1,7.0,,boy,,3_pencils,21.0,,boy,1,1,three,1
123,58,List1,Exp,,BoySomeMichaelErasers,,2,8.0,some,,AOI1,AOI7,some,,11,33-33,Michael's,,Click on the boy that has some of Michael's erasers,1.0,2_erasers,girl,3_pencils,2_rulers,3_scissors,1_ruler,1_eraser,boy,boy,girl,,,,,,,,boy with two erasers,7215.0,stationeries,small,,1,7.0,,boy,,2_erasers,22.0,,boy,1,1,two,1
124,58,List1,Exp,,GirlAllAmySpoons,,4,10.0,all,,AOI3,AOI9,all,,36,44-22,Amy's,,Click on the girl that has all of Amy's spoons,1.0,3_plates,girl,2_knives,2_spoons,3_forks,1_plate,1_fork,boy,boy,girl,,,,,,,,girl blushing with two spoons,5038.0,kitchenwares,small,,3,9.0,,girl,,2_spoons,23.0,,girl,1,1,two,1
125,58,List1,Filler,,GirlFourAmyPlates,,3,9.0,four,,AOI4,AOI10,four,,47,44-22,Amy's,,Click on the girl that has four of Amy's plates,1.0,1_knife,girl,3_forks,2_spoons,4_plates,1_knife,1_fork,boy,boy,girl,,,,,,,,girl blushing with four plates,6633.0,kitchenwares,big,,4,10.0,,girl,,4_plates,24.0,,girl,1,1,four,1
126,58,List1,Exp,,GirlAllMichaelRulers,,3,9.0,all,,AOI4,AOI10,all,,8,33-33,Michael's,,Click on the girl that has all of Michael's rulers,1.0,2_scissors,girl,3_pencils,2_erasers,3_rulers,1_eraser,1_scissor,boy,boy,girl,,,,,,,,girl blushing with three rulers,3792.0,stationeries,big,,4,10.0,,girl,,3_rulers,25.0,,girl,1,1,three,1
127,58,List1,Filler,,GirlFourMichaelPencils,,3,9.0,four,,AOI4,AOI10,four,,48,44-22,Michael's,,Click on the girl that has four of Michael's pencils,1.0,1_ruler,girl,2_erasers,3_scissors,4_pencils,1_ruler,1_scissor,boy,boy,girl,,,,,,,,girl blushing with four pencils,3886.0,stationeries,big,,4,10.0,,girl,,4_pencils,26.0,,girl,1,1,four,1
128,58,List1,Exp,,GirlTwoSusanBananas,,3,9.0,num,,AOI4,AOI10,two,,5,33-33,Susan's,,Click on the girl that has two of Susan's bananas,1.0,2_pears,girl,3_apples,3_oranges,2_bananas,1_banana,1_pear,boy,boy,girl,,,,,,,,girl blushing with two banans,3154.0,fruit,small,,4,10.0,,girl,,2_bananas,27.0,,girl,1,0,two,1
129,58,List1,Exp,,BoyTwoMichaelPencils,,1,7.0,num,,AOI2,AOI8,two,,28,44-22,Michael's,,Click on the boy that has two of Michael's pencils,1.0,3_scissors,girl,2_pencils,2_erasers,3_rulers,1_ruler,1_scissor,boy,boy,girl,,,,,,,,boy blushing with two pencils,4726.0,stationeries,small,,2,8.0,,boy,,2_pencils,28.0,,boy,1,1,two,1
130,58,List1,Exp,,GirlThreeSusanOranges,,4,10.0,num,,AOI3,AOI9,three,,23,44-22,Susan's,,Click on the girl that has three of Susan's oranges,1.0,3_apples,girl,2_pears,3_oranges,2_bananas,1_apple,1_orange,boy,boy,girl,,,,,,,,girl blushing with three oranges,6028.0,fruit,big,,3,9.0,,girl,,3_oranges,29.0,,girl,1,1,three,1
131,58,List1,Exp,,BoyTwoSusanApples,,2,8.0,num,,AOI1,AOI7,two,,24,44-22,Susan's,,Click on the boy that has two of Susan's apples,1.0,2_apples,girl,3_pears,3_bananas,2_oranges,1_banana,1_pear,boy,boy,girl,,,,,,,,boy with two apples,4087.0,fruit,small,,1,7.0,,boy,,2_apples,30.0,,boy,1,1,two,1
132,58,List1,Filler,,BoyOneMichaelRulers,,1,7.0,one,,AOI2,AOI8,one,,40,33-33,Michael's,,Click on the boy that has one of Michael's rulers,1.0,3_erasers,girl,1_ruler,3_pencils,3_scissors,2_scissors,0,boy,boy,girl,,,,,,,,boy with a ruler,3003.0,stationeries,small,,2,8.0,,boy,,1_ruler,31.0,,boy,1,1,a,1
133,58,List1,Filler,,GirlFourAmyKnives,,4,10.0,four,,AOI3,AOI9,four,,46,44-22,Amy's,,Click on the girl that has four of Amy's knives,1.0,1_spoon,girl,3_plates,4_knives,2_forks,1_spoon,1_plate,boy,boy,girl,,,,,,,,girl blushing with four knives,3920.0,kitchenwares,big,,3,9.0,,girl,,4_knives,32.0,,girl,1,1,four,1
134,58,List1,Exp,,GirlAllAmyPlates,,3,9.0,all,,AOI4,AOI10,all,,35,44-22,Amy's,,Click on the girl that has all of Amy's plates,1.0,3_spoons,girl,2_forks,3_knives,2_plates,1_spoon,1_knife,boy,boy,girl,,,,,,,,girl blushing with two plates,3527.0,kitchenwares,small,,4,10.0,,girl,,2_plates,33.0,,girl,1,1,two,1
135,58,List1,Exp,,GirlAllSusanBananas,,4,10.0,all,,AOI3,AOI9,all,,4,33-33,Susan's,,Click on the girl that has all of Susan's bananas,1.0,2_pears,girl,3_apples,3_bananas,2_oranges,1_orange,1_pear,boy,boy,girl,,,,,,,,girl blushing with three banans,3713.0,fruit,big,,3,9.0,,girl,,3_bananas,34.0,,girl,1,0,three,1
136,58,List1,Exp,,BoyAllSusanApples,,2,8.0,all,,AOI1,AOI7,all,,22,44-22,Susan's,,Click on the boy that has all of Susan's apples,1.0,2_apples,girl,3_pears,3_oranges,2_bananas,1_orange,1_pear,boy,boy,girl,,,,,,,,boy blushing with two apples,3876.0,fruit,small,,1,7.0,,boy,,2_apples,35.0,,boy,1,1,two,1
137,58,List1,Filler,,BoyFourMichaelScissors,,2,8.0,four,,AOI1,AOI7,four,,43,44-22,Michael's,,Click on the boy that has four of Michael's scissors,1.0,4_scissors,girl,1_pencil,2_rulers,3_erasers,1_pencil,1_eraser,boy,boy,girl,,,,,,,,boy with four scissors,3996.0,stationeries,big,,1,7.0,,boy,,4_scissors,36.0,,boy,1,1,four,1
138,58,List1,Exp,,BoyTwoAmySpoons,,2,8.0,num,,AOI1,AOI7,two,,32,44-22,Amy's,,Click on the boy that has two of Amy's spoons,1.0,2_spoons,girl,3_knives,3_forks,2_plates,1_fork,1_knife,boy,boy,girl,,,,,,,,boy with two spoons,3726.0,kitchenwares,small,,1,7.0,,boy,,2_spoons,37.0,,boy,1,1,two,1
139,58,List1,Filler,,GirlOneSusanPears,,3,9.0,one,,AOI4,AOI10,one,,42,33-33,Susan's,,Click on the girl that has one of Susan's pears,1.0,3_bananas,girl,3_oranges,3_apples,1_pear,2_pears,0,boy,boy,girl,,,,,,,,girl blushing with a pear,5283.0,fruit,small,,4,10.0,,girl,,1_pear,38.0,,girl,1,1,a,1
140,58,List1,Exp,,GirlTwoAmyForks,,3,9.0,num,,AOI4,AOI10,two,,13,33-33,Amy's,,Click on the girl that has two of Amy's forks,1.0,2_knives,girl,3_spoons,3_plates,2_forks,1_fork,1_knife,boy,boy,girl,,,,,,,,girl blushing with two forks,3504.0,kitchenwares,small,,4,10.0,,girl,,2_forks,39.0,,girl,1,1,two,1
141,58,List1,Exp,,GirlSomeSusanBananas,,3,9.0,some,,AOI4,AOI10,some,,19,44-22,Susan's,,Click on the girl that has some of Susan's bananas,1.0,3_oranges,girl,2_apples,2_pears,3_bananas,1_banana,1_orange,boy,boy,girl,,,,,,,,girl blushing with three banans,3319.0,fruit,big,,4,10.0,,girl,,3_bananas,40.0,,girl,1,0,three,1
142,58,List1,Exp,,BoySomeMichaelScissors,,1,7.0,some,,AOI2,AOI8,some,,12,33-33,Michael's,,Click on the boy that has some of Michael's scissors,1.0,3_rulers,girl,2_scissors,2_pencils,3_erasers,1_pencil,1_scissor,boy,boy,girl,,,,,,,,boy with two scissors,3386.0,stationeries,small,,2,8.0,,boy,,2_scissors,41.0,,boy,1,1,two,1
143,58,List1,Exp,,GirlSomeSusanApples,,4,10.0,some,,AOI3,AOI9,some,,20,44-22,Susan's,,Click on the girl that has some of Susan's apples,1.0,3_pears,girl,2_bananas,3_apples,2_oranges,1_apple,1_pear,boy,boy,girl,,,,,,,,girl blushing with three apples,3421.0,fruit,big,,3,9.0,,girl,,3_apples,42.0,,girl,1,1,three,1
144,58,List1,Exp,,GirlThreeMichaelScissors,,4,10.0,num,,AOI3,AOI9,three,,10,33-33,Michael's,,Click on the girl that has three of Michael's scissors,1.0,3_rulers,girl,2_erasers,3_scissors,2_pencils,1_pencil,1_eraser,boy,boy,girl,,,,,,,,girl blushing with three scissors,3478.0,stationeries,big,,3,9.0,,girl,,3_scissors,43.0,,girl,1,1,three,1
145,58,List1,Exp,,BoySomeSusanOranges,,1,7.0,some,,AOI2,AOI8,some,,2,33-33,Susan's,,Click on the boy that has some of Susan's oranges,1.0,3_apples,girl,2_oranges,2_bananas,3_pears,1_banana,1_orange,boy,boy,girl,,,,,,,,boy blushing with two oranges.,6347.0,fruit,small,,2,8.0,,boy,,2_oranges,44.0,,boy,1,1,two,1
146,58,List1,Filler,,BoyOneSusanApples,,2,8.0,one,,AOI1,AOI7,one,,37,33-33,Susan's,,Click on the boy that has one of Susan's apples,1.0,1_apple,girl,3_pears,3_bananas,3_oranges,2_apples,0,boy,boy,girl,,,,,,,,boy with one apple,3770.0,fruit,small,,1,7.0,,boy,,1_apple,45.0,,boy,1,1,one,1
147,58,List1,Exp,,BoyThreeMichaelErasers,,1,7.0,num,,AOI2,AOI8,three,,27,44-22,Michael's,,Click on the boy that has three of Michael's erasers,1.0,2_rulers,girl,3_erasers,2_scissors,3_pencils,1_pencil,1_eraser,boy,boy,girl,,,,,,,,boy with three erasers,3827.0,stationeries,big,,2,8.0,,boy,,3_erasers,46.0,,boy,1,1,three,1
148,58,List1,Exp,,GirlSomeMichaelRulers,,3,9.0,some,,AOI4,AOI10,some,,30,44-22,Michael's,,Click on the girl that has some of Michael's rulers,1.0,3_erasers,girl,2_pencils,2_scissors,3_rulers,1_ruler,1_eraser,boy,boy,girl,,,,,,,,girl blushing with three rulers,4917.0,stationeries,big,,4,10.0,,girl,,3_rulers,47.0,,girl,1,1,three,1
149,58,List1,Filler,,GirlOneMichaelErasers,,4,10.0,one,,AOI3,AOI9,one,,41,33-33,Michael's,,Click on the girl that has one of Michael's erasers,1.0,3_pencils,girl,3_scissors,1_eraser,3_rulers,2_erasers,0,boy,boy,girl,,,,,,,,girl blushing with an eraser,3624.0,stationeries,small,,3,9.0,,girl,,1_eraser,48.0,,girl,1,1,a,1
150,41,List1,Prac,kitchware_Amy_Monday,,Residue_kitchen,4,,,num,AOI3,AOI9,,three,5,44-22,Amy,Click on the girl that has three of Amy's knives,,,2_spoons,girl,3_forks,3_knives,2_plates,1_fork,1_knife,boy,boy,girl,knives,D4_forks,D2_spoons,D4_knives,production practice,1.0,GirlThreeAmyknives,girl and three knives,,kitchenwares,,big,3,,girl,,3_knives,,,,girl,0,0,three,0
151,41,List1,Prac,kitchware_Amy_Tuesday,,Slience,2,,,some,AOI4,AOI10,,some,6,33-33,Amy,Click on the girl that has some of Amy's forks,,,3_spoons,girl,2_knives,3_plates,2_forks,1_fork,1_knife,boy,boy,girl,forks,D3_forks,D3_spoons,D3_knives,production practice,2.0,GirlSomeAmyforks,girl and 2 forks,,kitchenwares,,big,4,,girl,,2_forks,,,,girl,0,0,two,0
152,41,List1,Exp,,BoyAllSusanOranges,,1,7.0,all,,AOI2,AOI8,all,,21,44-22,Susan's,,Click on the boy that has all of Susan's oranges,1.0,3_bananas,girl,2_oranges,3_apples,2_pears,1_apple,1_banana,boy,boy,girl,,,,,,,,boy and 2 oranges,16049.0,fruit,small,,2,8.0,,boy,,2_oranges,1.0,,boy,1,1,two,1
153,41,List1,Exp,,GirlSomeAmyPlates,,3,9.0,some,,AOI4,AOI10,some,,16,33-33,Amy's,,Click on the girl that has some of Amy's plates,1.0,2_forks,girl,3_knives,3_spoons,2_plates,1_fork,1_plate,boy,boy,girl,,,,,,,,girl and 2 plates,11707.0,kitchenwares,small,,4,10.0,,girl,,2_plates,2.0,,girl,1,1,two,1
154,41,List1,Exp,,GirlAllAmySpoons,,4,10.0,all,,AOI3,AOI9,all,,36,44-22,Amy's,,Click on the girl that has all of Amy's spoons,1.0,3_plates,girl,2_knives,2_spoons,3_forks,1_plate,1_fork,boy,boy,girl,,,,,,,,girl and three forks,6819.0,kitchenwares,small,,3,9.0,,girl,,2_spoons,3.0,,girl,1,0,three,0
155,41,List1,Exp,,BoySomeAmySpoons,,1,7.0,some,,AOI2,AOI8,some,,33,44-22,Amy's,,Click on the boy that has some of Amy's spoons,1.0,2_plates,girl,3_spoons,2_forks,3_knives,1_spoon,1_knife,boy,boy,girl,,,,,,,,boy and three spoons,6318.0,kitchenwares,big,,2,8.0,,boy,,3_spoons,4.0,,boy,1,1,three,1
156,41,List1,Filler,,BoyFourMichaelScissors,,2,8.0,four,,AOI1,AOI7,four,,43,44-22,Michael's,,Click on the boy that has four of Michael's scissors,1.0,4_scissors,girl,1_pencil,2_rulers,3_erasers,1_pencil,1_eraser,boy,boy,girl,,,,,,,,boy and 4 scissors,8809.0,stationeries,big,,1,7.0,,boy,,4_scissors,5.0,,boy,1,1,four,1
157,41,List1,Exp,,GirlThreeSusanPears,,3,9.0,num,,AOI4,AOI10,three,,6,33-33,Susan's,,Click on the girl that has three of Susan's pears,1.0,2_oranges,girl,3_bananas,2_apples,3_pears,1_apple,1_orange,boy,boy,girl,,,,,,,,girl and 3 pears,7001.0,fruit,big,,4,10.0,,girl,,3_pears,6.0,,girl,1,1,three,1
158,41,List1,Exp,,GirlTwoAmyForks,,3,9.0,num,,AOI4,AOI10,two,,13,33-33,Amy's,,Click on the girl that has two of Amy's forks,1.0,2_knives,girl,3_spoons,3_plates,2_forks,1_fork,1_knife,boy,boy,girl,,,,,,,,girl and 2 forks,5403.0,kitchenwares,small,,4,10.0,,girl,,2_forks,7.0,,girl,1,1,two,1
159,41,List1,Exp,,GirlAllSusanBananas,,4,10.0,all,,AOI3,AOI9,all,,4,33-33,Susan's,,Click on the girl that has all of Susan's bananas,1.0,2_pears,girl,3_apples,3_bananas,2_oranges,1_orange,1_pear,boy,boy,girl,,,,,,,,girl and 3 bananas,7053.0,fruit,big,,3,9.0,,girl,,3_bananas,8.0,,girl,1,1,three,1
160,41,List1,Exp,,BoyThreeAmyKnives,,1,7.0,num,,AOI2,AOI8,three,,14,33-33,Amy's,,Click on the boy that has three of Amy's knives,1.0,2_spoons,girl,3_knives,2_plates,3_forks,1_spoon,1_plate,boy,boy,girl,,,,,,,,boy and 3 knives,5344.0,kitchenwares,big,,2,8.0,,boy,,3_knives,9.0,,boy,1,1,three,1
161,41,List1,Exp,,BoySomeMichaelScissors,,1,7.0,some,,AOI2,AOI8,some,,12,33-33,Michael's,,Click on the boy that has some of Michael's scissors,1.0,3_rulers,girl,2_scissors,2_pencils,3_erasers,1_pencil,1_scissor,boy,boy,girl,,,,,,,,boy and 2 scissors,5825.0,stationeries,small,,2,8.0,,boy,,2_scissors,10.0,,boy,1,1,two,1
162,41,List1,Filler,,GirlOneMichaelErasers,,4,10.0,one,,AOI3,AOI9,one,,41,33-33,Michael's,,Click on the girl that has one of Michael's erasers,1.0,3_pencils,girl,3_scissors,1_eraser,3_rulers,2_erasers,0,boy,boy,girl,,,,,,,,girl and eraser,4885.0,stationeries,small,,3,9.0,,girl,,1_eraser,11.0,,girl,1,1,noDet,1
163,41,List1,Exp,,BoyTwoMichaelPencils,,1,7.0,num,,AOI2,AOI8,two,,28,44-22,Michael's,,Click on the boy that has two of Michael's pencils,1.0,3_scissors,girl,2_pencils,2_erasers,3_rulers,1_ruler,1_scissor,boy,boy,girl,,,,,,,,boy and 2 pencils,6412.0,stationeries,small,,2,8.0,,boy,,2_pencils,12.0,,boy,1,1,two,1
164,41,List1,Exp,,GirlTwoMichaelRulers,,4,10.0,num,,AOI3,AOI9,two,,9,33-33,Michael's,,Click on the girl that has two of Michael's rulers,1.0,3_pencils,girl,2_scissors,2_rulers,3_erasers,1_ruler,1_scissor,boy,boy,girl,,,,,,,,girl and 2 rulers,8602.0,stationeries,small,,3,9.0,,girl,,2_rulers,13.0,,girl,1,1,two,1
165,41,List1,Exp,,GirlSomeAmyForks,,4,10.0,some,,AOI3,AOI9,some,,34,44-22,Amy's,,Click on the girl that has some of Amy's forks,1.0,2_spoons,girl,3_plates,3_forks,2_knives,1_fork,1_plate,boy,boy,girl,,,,,,,,girl and 3 forks,5143.0,kitchenwares,big,,3,9.0,,girl,,3_forks,14.0,,girl,1,1,three,1
166,41,List1,Exp,,BoyThreeMichaelErasers,,1,7.0,num,,AOI2,AOI8,three,,27,44-22,Michael's,,Click on the boy that has three of Michael's erasers,1.0,2_rulers,girl,3_erasers,2_scissors,3_pencils,1_pencil,1_eraser,boy,boy,girl,,,,,,,,boy and 3 erasers,6248.0,stationeries,big,,2,8.0,,boy,,3_erasers,15.0,,boy,1,1,three,1
167,41,List1,Exp,,BoyTwoAmySpoons,,2,8.0,num,,AOI1,AOI7,two,,32,44-22,Amy's,,Click on the boy that has two of Amy's spoons,1.0,2_spoons,girl,3_knives,3_forks,2_plates,1_fork,1_knife,boy,boy,girl,,,,,,,,boy and 2 spoons,5862.0,kitchenwares,small,,1,7.0,,boy,,2_spoons,16.0,,boy,1,1,two,1
168,41,List1,Exp,,BoyAllAmyForks,,1,7.0,all,,AOI2,AOI8,all,,17,33-33,Amy's,,Click on the boy that has all of Amy's forks,1.0,2_spoons,girl,3_forks,2_knives,3_plates,1_spoon,1_knife,boy,boy,girl,,,,,,,,boy and 3 forks,4204.0,kitchenwares,big,,2,8.0,,boy,,3_forks,17.0,,boy,1,1,three,1
169,41,List1,Exp,,GirlAllMichaelRulers,,3,9.0,all,,AOI4,AOI10,all,,8,33-33,Michael's,,Click on the girl that has all of Michael's rulers,1.0,2_scissors,girl,3_pencils,2_erasers,3_rulers,1_eraser,1_scissor,boy,boy,girl,,,,,,,,girl and 3 rulers,4740.0,stationeries,big,,4,10.0,,girl,,3_rulers,18.0,,girl,1,1,three,1
170,41,List1,Exp,,GirlSomeMichaelRulers,,3,9.0,some,,AOI4,AOI10,some,,30,44-22,Michael's,,Click on the girl that has some of Michael's rulers,1.0,3_erasers,girl,2_pencils,2_scissors,3_rulers,1_ruler,1_eraser,boy,boy,girl,,,,,,,,girl and 3 rulers,6439.0,stationeries,big,,4,10.0,,girl,,3_rulers,19.0,,girl,1,1,three,1
171,41,List1,Exp,,BoySomeSusanPears,,2,8.0,some,,AOI1,AOI7,some,,1,33-33,Susan's,,Click on the boy that has some of Susan's pears,1.0,2_pears,girl,3_bananas,2_apples,3_oranges,1_apple,1_pear,boy,boy,girl,,,,,,,,boy and 2 pears,5645.0,fruit,small,,1,7.0,,boy,,2_pears,20.0,,boy,1,1,two,1
172,41,List1,Filler,,GirlFourAmyKnives,,4,10.0,four,,AOI3,AOI9,four,,46,44-22,Amy's,,Click on the girl that has four of Amy's knives,1.0,1_spoon,girl,3_plates,4_knives,2_forks,1_spoon,1_plate,boy,boy,girl,,,,,,,,girl and 4 knives,6532.0,kitchenwares,big,,3,9.0,,girl,,4_knives,21.0,,girl,1,1,four,1
173,41,List1,Exp,,BoyAllAmyKnives,,2,8.0,all,,AOI1,AOI7,all,,18,33-33,Amy's,,Click on the boy that has all of Amy's knives,1.0,3_knives,girl,2_plates,3_spoons,2_forks,1_plate,1_fork,boy,boy,girl,,,,,,,,boy and 3 knives,5389.0,kitchenwares,big,,1,7.0,,boy,,3_knives,22.0,,boy,1,1,three,1
174,41,List1,Exp,,GirlThreeSusanOranges,,4,10.0,num,,AOI3,AOI9,three,,23,44-22,Susan's,,Click on the girl that has three of Susan's oranges,1.0,3_apples,girl,2_pears,3_oranges,2_bananas,1_apple,1_orange,boy,boy,girl,,,,,,,,girl and 3 oranges,5435.0,fruit,big,,3,9.0,,girl,,3_oranges,23.0,,girl,1,1,three,1
175,41,List1,Filler,,BoyOneAmySpoons,,1,7.0,one,,AOI2,AOI8,one,,39,33-33,Amy's,,Click on the boy that has one of Amy's spoons,1.0,3_forks,girl,1_spoon,3_plates,3_knives,2_spoons,0,boy,boy,girl,,,,,,,,boy and spoon,4781.0,kitchenwares,small,,2,8.0,,boy,,1_spoon,24.0,,boy,1,1,noDet,1
176,41,List1,Exp,,GirlThreeMichaelScissors,,4,10.0,num,,AOI3,AOI9,three,,10,33-33,Michael's,,Click on the girl that has three of Michael's scissors,1.0,3_rulers,girl,2_erasers,3_scissors,2_pencils,1_pencil,1_eraser,boy,boy,girl,,,,,,,,girl and 3 scissors,5035.0,stationeries,big,,3,9.0,,girl,,3_scissors,25.0,,girl,1,1,three,1
177,41,List1,Filler,,GirlFourMichaelPencils,,3,9.0,four,,AOI4,AOI10,four,,48,44-22,Michael's,,Click on the girl that has four of Michael's pencils,1.0,1_ruler,girl,2_erasers,3_scissors,4_pencils,1_ruler,1_scissor,boy,boy,girl,,,,,,,,girl and 4 pencils,6038.0,stationeries,big,,4,10.0,,girl,,4_pencils,26.0,,girl,1,1,four,1
178,41,List1,Exp,,BoySomeMichaelErasers,,2,8.0,some,,AOI1,AOI7,some,,11,33-33,Michael's,,Click on the boy that has some of Michael's erasers,1.0,2_erasers,girl,3_pencils,2_rulers,3_scissors,1_ruler,1_eraser,boy,boy,girl,,,,,,,,girl and 2 erasers,6773.0,stationeries,small,,1,7.0,,boy,,2_erasers,27.0,,girl,0,1,two,1
179,41,List1,Filler,,BoyOneMichaelRulers,,1,7.0,one,,AOI2,AOI8,one,,40,33-33,Michael's,,Click on the boy that has one of Michael's rulers,1.0,3_erasers,girl,1_ruler,3_pencils,3_scissors,2_scissors,0,boy,boy,girl,,,,,,,,boy and ruler,3798.0,stationeries,small,,2,8.0,,boy,,1_ruler,28.0,,boy,1,1,noDet,1
180,41,List1,Filler,,BoyOneAmyPlates,,2,8.0,one,,AOI1,AOI7,one,,38,33-33,Amy's,,Click on the boy that has one of Amy's plates,1.0,1_plate,girl,3_knives,3_forks,3_spoons,2_plates,0,boy,boy,girl,,,,,,,,boy and plate,3885.0,kitchenwares,small,,1,7.0,,boy,,1_plate,29.0,,boy,1,1,noDet,1
181,41,List1,Filler,,BoyFourSusanBananas,,1,7.0,four,,AOI2,AOI8,four,,44,44-22,Susan's,,Click on the boy that has four of Susan's bananas,1.0,1_orange,girl,4_bananas,3_pears,2_apples,1_orange,1_pear,boy,boy,girl,,,,,,,,boy and 4 bananas,6425.0,fruit,big,,2,8.0,,boy,,4_bananas,30.0,,boy,1,1,four,1
182,41,List1,Exp,,GirlSomeSusanBananas,,3,9.0,some,,AOI4,AOI10,some,,19,44-22,Susan's,,Click on the girl that has some of Susan's bananas,1.0,3_oranges,girl,2_apples,2_pears,3_bananas,1_banana,1_orange,boy,boy,girl,,,,,,,,girl and 3 bananas,5917.0,fruit,big,,4,10.0,,girl,,3_bananas,31.0,,girl,1,1,three,1
183,41,List1,Exp,,BoyAllMichaelScissors,,2,8.0,all,,AOI1,AOI7,all,,7,33-33,Michael's,,Click on the boy that has all of Michael's scissors,1.0,3_scissors,girl,2_pencils,3_erasers,2_rulers,1_pencil,1_ruler,boy,boy,girl,,,,,,,,boy and 3 scissors,4737.0,stationeries,big,,1,7.0,,boy,,3_scissors,32.0,,boy,1,1,three,1
184,41,List1,Exp,,GirlSomeAmyKnives,,4,10.0,some,,AOI3,AOI9,some,,15,33-33,Amy's,,Click on the girl that has some of Amy's knives,1.0,2_spoons,girl,3_plates,2_knives,3_forks,1_spoon,1_knife,boy,boy,girl,,,,,,,,girl and 2 knives,5850.0,kitchenwares,small,,3,9.0,,girl,,2_knives,33.0,,girl,1,1,two,1
185,41,List1,Filler,,GirlOneSusanPears,,3,9.0,one,,AOI4,AOI10,one,,42,33-33,Susan's,,Click on the girl that has one of Susan's pears,1.0,3_bananas,girl,3_oranges,3_apples,1_pear,2_pears,0,boy,boy,girl,,,,,,,,girl and pear,4577.0,fruit,small,,4,10.0,,girl,,1_pear,34.0,,girl,1,1,noDet,1
186,41,List1,Exp,,BoyTwoSusanApples,,2,8.0,num,,AOI1,AOI7,two,,24,44-22,Susan's,,Click on the boy that has two of Susan's apples,1.0,2_apples,girl,3_pears,3_bananas,2_oranges,1_banana,1_pear,boy,boy,girl,,,,,,,,boy and 2 apples,4501.0,fruit,small,,1,7.0,,boy,,2_apples,35.0,,boy,1,1,two,1
187,41,List1,Exp,,BoySomeSusanOranges,,1,7.0,some,,AOI2,AOI8,some,,2,33-33,Susan's,,Click on the boy that has some of Susan's oranges,1.0,3_apples,girl,2_oranges,2_bananas,3_pears,1_banana,1_orange,boy,boy,girl,,,,,,,,boy and 2 oranges,5389.0,fruit,small,,2,8.0,,boy,,2_oranges,36.0,,boy,1,1,two,1
188,41,List1,Exp,,GirlAllAmyPlates,,3,9.0,all,,AOI4,AOI10,all,,35,44-22,Amy's,,Click on the girl that has all of Amy's plates,1.0,3_spoons,girl,2_forks,3_knives,2_plates,1_spoon,1_knife,boy,boy,girl,,,,,,,,girl and 2 plates,6513.0,kitchenwares,small,,4,10.0,,girl,,2_plates,37.0,,girl,1,1,two,1
189,41,List1,Filler,,BoyOneSusanApples,,2,8.0,one,,AOI1,AOI7,one,,37,33-33,Susan's,,Click on the boy that has one of Susan's apples,1.0,1_apple,girl,3_pears,3_bananas,3_oranges,2_apples,0,boy,boy,girl,,,,,,,,boy and apple,3306.0,fruit,small,,1,7.0,,boy,,1_apple,38.0,,boy,1,1,noDet,1
190,41,List1,Exp,,BoyThreeAmyPlates,,2,8.0,num,,AOI1,AOI7,three,,31,44-22,Amy's,,Click on the boy that has three of Amy's plates,1.0,3_plates,girl,2_forks,3_spoons,2_knives,1_spoon,1_plate,boy,boy,girl,,,,,,,,boy and 3 plates,4634.0,kitchenwares,big,,1,7.0,,boy,,3_plates,39.0,,boy,1,1,three,1
191,41,List1,Filler,,GirlFourAmyPlates,,3,9.0,four,,AOI4,AOI10,four,,47,44-22,Amy's,,Click on the girl that has four of Amy's plates,1.0,1_knife,girl,3_forks,2_spoons,4_plates,1_knife,1_fork,boy,boy,girl,,,,,,,,girl and 4 plates,4826.0,kitchenwares,big,,4,10.0,,girl,,4_plates,40.0,,girl,1,1,four,1
192,41,List1,Exp,,GirlAllMichaelPencils,,3,9.0,all,,AOI4,AOI10,all,,25,44-22,Michael's,,Click on the girl that has all of Michael's pencils,1.0,3_erasers,girl,2_rulers,3_scissors,2_pencils,1_eraser,1_scissor,boy,boy,girl,,,,,,,,girl and 2 pencils,7788.0,stationeries,small,,4,10.0,,girl,,2_pencils,41.0,,girl,1,1,two,1
193,41,List1,Exp,,GirlSomeSusanApples,,4,10.0,some,,AOI3,AOI9,some,,20,44-22,Susan's,,Click on the girl that has some of Susan's apples,1.0,3_pears,girl,2_bananas,3_apples,2_oranges,1_apple,1_pear,boy,boy,girl,,,,,,,,girl and 3 apples,6536.0,fruit,big,,3,9.0,,girl,,3_apples,42.0,,girl,1,1,three,1
194,41,List1,Exp,,GirlTwoSusanBananas,,3,9.0,num,,AOI4,AOI10,two,,5,33-33,Susan's,,Click on the girl that has two of Susan's bananas,1.0,2_pears,girl,3_apples,3_oranges,2_bananas,1_banana,1_pear,boy,boy,girl,,,,,,,,girl and 2 bananas,6554.0,fruit,small,,4,10.0,,girl,,2_bananas,43.0,,girl,1,1,two,1
195,41,List1,Exp,,BoyAllSusanPears,,1,7.0,all,,AOI2,AOI8,all,,3,33-33,Susan's,,Click on the boy that has all of Susan's pears,1.0,2_apples,girl,3_pears,2_bananas,3_oranges,1_apple,1_banana,boy,boy,girl,,,,,,,,boy and 3 pears,4889.0,fruit,big,,2,8.0,,boy,,3_pears,44.0,,boy,1,1,three,1
196,41,List1,Filler,,GirlFourSusanOranges,,4,10.0,four,,AOI3,AOI9,four,,45,44-22,Susan's,,Click on the girl that has four of Susan's oranges,1.0,2_pears,girl,3_apples,4_oranges,1_banana,1_banana,1_apple,boy,boy,girl,,,,,,,,girl and 4 oranges,5044.0,fruit,big,,3,9.0,,girl,,4_oranges,45.0,,girl,1,1,four,1
197,41,List1,Exp,,GirlAllMichaelErasers,,4,10.0,all,,AOI3,AOI9,all,,26,44-22,Michael's,,Click on the girl that has all of Michael's erasers,1.0,3_pencils,girl,2_scissors,2_erasers,3_rulers,1_pencil,1_ruler,boy,boy,girl,,,,,,,,girl and 2 erasers,5806.0,stationeries,small,,3,9.0,,girl,,2_erasers,46.0,,girl,1,1,two,1
198,41,List1,Exp,,BoyAllSusanApples,,2,8.0,all,,AOI1,AOI7,all,,22,44-22,Susan's,,Click on the boy that has all of Susan's apples,1.0,2_apples,girl,3_pears,3_oranges,2_bananas,1_orange,1_pear,boy,boy,girl,,,,,,,,boy and 2 apples,4581.0,fruit,small,,1,7.0,,boy,,2_apples,47.0,,boy,1,1,two,1
199,41,List1,Exp,,BoySomeMichaelPencils,,2,8.0,some,,AOI1,AOI7,some,,29,44-22,Michael's,,Click on the boy that has some of Michael's pencils,1.0,3_pencils,girl,2_erasers,3_scissors,2_rulers,1_pencil,1_scissor,boy,boy,girl,,,,,,,,boy and 3 pencils,5306.0,stationeries,big,,1,7.0,,boy,,3_pencils,48.0,,boy,1,1,three,1
200,35,List1,Prac,kitchware_Amy_Monday,,Residue_kitchen,4,,,num,AOI3,AOI9,,three,5,44-22,Amy,Click on the girl that has three of Amy's knives,,,2_spoons,girl,3_forks,3_knives,2_plates,1_fork,1_knife,boy,boy,girl,knives,D4_forks,D2_spoons,D4_knives,production practice,1.0,GirlThreeAmyknives,girl with knives,,kitchenwares,,big,3,,girl,,3_knives,,,,girl,0,0,noDet,1
201,35,List1,Prac,kitchware_Amy_Tuesday,,Slience,2,,,some,AOI4,AOI10,,some,6,33-33,Amy,Click on the girl that has some of Amy's forks,,,3_spoons,girl,2_knives,3_plates,2_forks,1_fork,1_knife,boy,boy,girl,forks,D3_forks,D3_spoons,D3_knives,production practice,2.0,GirlSomeAmyforks,girl with forks,,kitchenwares,,big,4,,girl,,2_forks,,,,girl,0,0,noDet,1
202,35,List1,Exp,,GirlThreeSusanPears,,3,9.0,num,,AOI4,AOI10,three,,6,33-33,Susan's,,Click on the girl that has three of Susan's pears,1.0,2_oranges,girl,3_bananas,2_apples,3_pears,1_apple,1_orange,boy,boy,girl,,,,,,,,girl with pears,8573.0,fruit,big,,4,10.0,,girl,,3_pears,1.0,,girl,1,1,noDet,1
203,35,List1,Filler,,BoyFourMichaelScissors,,2,8.0,four,,AOI1,AOI7,four,,43,44-22,Michael's,,Click on the boy that has four of Michael's scissors,1.0,4_scissors,girl,1_pencil,2_rulers,3_erasers,1_pencil,1_eraser,boy,boy,girl,,,,,,,,boy with scissors,9195.0,stationeries,big,,1,7.0,,boy,,4_scissors,2.0,,boy,1,1,noDet,1
204,35,List1,Exp,,GirlAllMichaelRulers,,3,9.0,all,,AOI4,AOI10,all,,8,33-33,Michael's,,Click on the girl that has all of Michael's rulers,1.0,2_scissors,girl,3_pencils,2_erasers,3_rulers,1_eraser,1_scissor,boy,boy,girl,,,,,,,,girl with ruler,7519.0,stationeries,big,,4,10.0,,girl,,3_rulers,3.0,,girl,1,1,noDet,1
205,35,List1,Exp,,BoyAllSusanApples,,2,8.0,all,,AOI1,AOI7,all,,22,44-22,Susan's,,Click on the boy that has all of Susan's apples,1.0,2_apples,girl,3_pears,3_oranges,2_bananas,1_orange,1_pear,boy,boy,girl,,,,,,,,boy with apples,5263.0,fruit,small,,1,7.0,,boy,,2_apples,4.0,,boy,1,1,noDet,1
206,35,List1,Filler,,GirlFourSusanOranges,,4,10.0,four,,AOI3,AOI9,four,,45,44-22,Susan's,,Click on the girl that has four of Susan's oranges,1.0,2_pears,girl,3_apples,4_oranges,1_banana,1_banana,1_apple,boy,boy,girl,,,,,,,,girl with oranges,6210.0,fruit,big,,3,9.0,,girl,,4_oranges,5.0,,girl,1,1,noDet,1
207,35,List1,Exp,,BoySomeAmySpoons,,1,7.0,some,,AOI2,AOI8,some,,33,44-22,Amy's,,Click on the boy that has some of Amy's spoons,1.0,2_plates,girl,3_spoons,2_forks,3_knives,1_spoon,1_knife,boy,boy,girl,,,,,,,,boy with spoons,7222.0,kitchenwares,big,,2,8.0,,boy,,3_spoons,6.0,,boy,1,1,noDet,1
208,35,List1,Exp,,GirlTwoMichaelRulers,,4,10.0,num,,AOI3,AOI9,two,,9,33-33,Michael's,,Click on the girl that has two of Michael's rulers,1.0,3_pencils,girl,2_scissors,2_rulers,3_erasers,1_ruler,1_scissor,boy,boy,girl,,,,,,,,girl with rulers,4749.0,stationeries,small,,3,9.0,,girl,,2_rulers,7.0,,girl,1,1,noDet,1
209,35,List1,Exp,,GirlSomeAmyPlates,,3,9.0,some,,AOI4,AOI10,some,,16,33-33,Amy's,,Click on the girl that has some of Amy's plates,1.0,2_forks,girl,3_knives,3_spoons,2_plates,1_fork,1_plate,boy,boy,girl,,,,,,,,girl with plates,4754.0,kitchenwares,small,,4,10.0,,girl,,2_plates,8.0,,girl,1,1,noDet,1
210,35,List1,Exp,,BoyThreeMichaelErasers,,1,7.0,num,,AOI2,AOI8,three,,27,44-22,Michael's,,Click on the boy that has three of Michael's erasers,1.0,2_rulers,girl,3_erasers,2_scissors,3_pencils,1_pencil,1_eraser,boy,boy,girl,,,,,,,,boy with erasers,12237.0,stationeries,big,,2,8.0,,boy,,3_erasers,9.0,,boy,1,1,noDet,1
211,35,List1,Filler,,GirlOneMichaelErasers,,4,10.0,one,,AOI3,AOI9,one,,41,33-33,Michael's,,Click on the girl that has one of Michael's erasers,1.0,3_pencils,girl,3_scissors,1_eraser,3_rulers,2_erasers,0,boy,boy,girl,,,,,,,,girl with eraser,8727.0,stationeries,small,,3,9.0,,girl,,1_eraser,10.0,,girl,1,1,noDet,1
212,35,List1,Exp,,GirlSomeAmyKnives,,4,10.0,some,,AOI3,AOI9,some,,15,33-33,Amy's,,Click on the girl that has some of Amy's knives,1.0,2_spoons,girl,3_plates,2_knives,3_forks,1_spoon,1_knife,boy,boy,girl,,,,,,,,girl with knives,5206.0,kitchenwares,small,,3,9.0,,girl,,2_knives,11.0,,girl,1,1,noDet,1
213,35,List1,Exp,,BoyTwoAmySpoons,,2,8.0,num,,AOI1,AOI7,two,,32,44-22,Amy's,,Click on the boy that has two of Amy's spoons,1.0,2_spoons,girl,3_knives,3_forks,2_plates,1_fork,1_knife,boy,boy,girl,,,,,,,,boy with spoons,5578.0,kitchenwares,small,,1,7.0,,boy,,2_spoons,12.0,,boy,1,1,noDet,1
214,35,List1,Exp,,BoySomeSusanPears,,2,8.0,some,,AOI1,AOI7,some,,1,33-33,Susan's,,Click on the boy that has some of Susan's pears,1.0,2_pears,girl,3_bananas,2_apples,3_oranges,1_apple,1_pear,boy,boy,girl,,,,,,,,boy with pears,4990.0,fruit,small,,1,7.0,,boy,,2_pears,13.0,,boy,1,1,noDet,1
215,35,List1,Filler,,GirlOneSusanPears,,3,9.0,one,,AOI4,AOI10,one,,42,33-33,Susan's,,Click on the girl that has one of Susan's pears,1.0,3_bananas,girl,3_oranges,3_apples,1_pear,2_pears,0,boy,boy,girl,,,,,,,,girl with pear,4605.0,fruit,small,,4,10.0,,girl,,1_pear,14.0,,girl,1,1,noDet,1
216,35,List1,Filler,,BoyOneSusanApples,,2,8.0,one,,AOI1,AOI7,one,,37,33-33,Susan's,,Click on the boy that has one of Susan's apples,1.0,1_apple,girl,3_pears,3_bananas,3_oranges,2_apples,0,boy,boy,girl,,,,,,,,boy with apple,5439.0,fruit,small,,1,7.0,,boy,,1_apple,15.0,,boy,1,1,noDet,1
217,35,List1,Exp,,GirlTwoSusanBananas,,3,9.0,num,,AOI4,AOI10,two,,5,33-33,Susan's,,Click on the girl that has two of Susan's bananas,1.0,2_pears,girl,3_apples,3_oranges,2_bananas,1_banana,1_pear,boy,boy,girl,,,,,,,,girl with bananas,5971.0,fruit,small,,4,10.0,,girl,,2_bananas,16.0,,girl,1,1,noDet,1
218,35,List1,Exp,,BoySomeMichaelErasers,,2,8.0,some,,AOI1,AOI7,some,,11,33-33,Michael's,,Click on the boy that has some of Michael's erasers,1.0,2_erasers,girl,3_pencils,2_rulers,3_scissors,1_ruler,1_eraser,boy,boy,girl,,,,,,,,boy with erasers,6154.0,stationeries,small,,1,7.0,,boy,,2_erasers,17.0,,boy,1,1,noDet,1
219,35,List1,Exp,,BoySomeMichaelPencils,,2,8.0,some,,AOI1,AOI7,some,,29,44-22,Michael's,,Click on the boy that has some of Michael's pencils,1.0,3_pencils,girl,2_erasers,3_scissors,2_rulers,1_pencil,1_scissor,boy,boy,girl,,,,,,,,boy with pencils,8270.0,stationeries,big,,1,7.0,,boy,,3_pencils,18.0,,boy,1,1,noDet,1
220,35,List1,Exp,,GirlSomeAmyForks,,4,10.0,some,,AOI3,AOI9,some,,34,44-22,Amy's,,Click on the girl that has some of Amy's forks,1.0,2_spoons,girl,3_plates,3_forks,2_knives,1_fork,1_plate,boy,boy,girl,,,,,,,,girl with forks,5562.0,kitchenwares,big,,3,9.0,,girl,,3_forks,19.0,,girl,1,1,noDet,1
221,35,List1,Exp,,BoyThreeAmyPlates,,2,8.0,num,,AOI1,AOI7,three,,31,44-22,Amy's,,Click on the boy that has three of Amy's plates,1.0,3_plates,girl,2_forks,3_spoons,2_knives,1_spoon,1_plate,boy,boy,girl,,,,,,,,boy with plates,4698.0,kitchenwares,big,,1,7.0,,boy,,3_plates,20.0,,boy,1,1,noDet,1
222,35,List1,Exp,,GirlSomeMichaelRulers,,3,9.0,some,,AOI4,AOI10,some,,30,44-22,Michael's,,Click on the girl that has some of Michael's rulers,1.0,3_erasers,girl,2_pencils,2_scissors,3_rulers,1_ruler,1_eraser,boy,boy,girl,,,,,,,,girl with rulers,5592.0,stationeries,big,,4,10.0,,girl,,3_rulers,21.0,,girl,1,1,noDet,1
223,35,List1,Exp,,GirlThreeSusanOranges,,4,10.0,num,,AOI3,AOI9,three,,23,44-22,Susan's,,Click on the girl that has three of Susan's oranges,1.0,3_apples,girl,2_pears,3_oranges,2_bananas,1_apple,1_orange,boy,boy,girl,,,,,,,,girl with oranges,4883.0,fruit,big,,3,9.0,,girl,,3_oranges,22.0,,girl,1,1,noDet,1
224,35,List1,Exp,,BoyAllAmyKnives,,2,8.0,all,,AOI1,AOI7,all,,18,33-33,Amy's,,Click on the boy that has all of Amy's knives,1.0,3_knives,girl,2_plates,3_spoons,2_forks,1_plate,1_fork,boy,boy,girl,,,,,,,,boy with knives,6688.0,kitchenwares,big,,1,7.0,,boy,,3_knives,23.0,,boy,1,1,noDet,1
225,35,List1,Exp,,GirlTwoAmyForks,,3,9.0,num,,AOI4,AOI10,two,,13,33-33,Amy's,,Click on the girl that has two of Amy's forks,1.0,2_knives,girl,3_spoons,3_plates,2_forks,1_fork,1_knife,boy,boy,girl,,,,,,,,girl with forks,4730.0,kitchenwares,small,,4,10.0,,girl,,2_forks,24.0,,girl,1,1,noDet,1
226,35,List1,Filler,,BoyOneMichaelRulers,,1,7.0,one,,AOI2,AOI8,one,,40,33-33,Michael's,,Click on the boy that has one of Michael's rulers,1.0,3_erasers,girl,1_ruler,3_pencils,3_scissors,2_scissors,0,boy,boy,girl,,,,,,,,boy with ruler,3960.0,stationeries,small,,2,8.0,,boy,,1_ruler,25.0,,boy,1,1,noDet,1
227,35,List1,Exp,,BoyTwoMichaelPencils,,1,7.0,num,,AOI2,AOI8,two,,28,44-22,Michael's,,Click on the boy that has two of Michael's pencils,1.0,3_scissors,girl,2_pencils,2_erasers,3_rulers,1_ruler,1_scissor,boy,boy,girl,,,,,,,,boy with pencils,6248.0,stationeries,small,,2,8.0,,boy,,2_pencils,26.0,,boy,1,1,noDet,1
228,35,List1,Exp,,BoyThreeAmyKnives,,1,7.0,num,,AOI2,AOI8,three,,14,33-33,Amy's,,Click on the boy that has three of Amy's knives,1.0,2_spoons,girl,3_knives,2_plates,3_forks,1_spoon,1_plate,boy,boy,girl,,,,,,,,boy with knives,7046.0,kitchenwares,big,,2,8.0,,boy,,3_knives,27.0,,boy,1,1,noDet,1
229,35,List1,Exp,,GirlThreeMichaelScissors,,4,10.0,num,,AOI3,AOI9,three,,10,33-33,Michael's,,Click on the girl that has three of Michael's scissors,1.0,3_rulers,girl,2_erasers,3_scissors,2_pencils,1_pencil,1_eraser,boy,boy,girl,,,,,,,,girl with scissors,6793.0,stationeries,big,,3,9.0,,girl,,3_scissors,28.0,,girl,1,1,noDet,1
230,35,List1,Exp,,BoyTwoSusanApples,,2,8.0,num,,AOI1,AOI7,two,,24,44-22,Susan's,,Click on the boy that has two of Susan's apples,1.0,2_apples,girl,3_pears,3_bananas,2_oranges,1_banana,1_pear,boy,boy,girl,,,,,,,,boy with apples,5047.0,fruit,small,,1,7.0,,boy,,2_apples,29.0,,boy,1,1,noDet,1
231,35,List1,Filler,,BoyOneAmySpoons,,1,7.0,one,,AOI2,AOI8,one,,39,33-33,Amy's,,Click on the boy that has one of Amy's spoons,1.0,3_forks,girl,1_spoon,3_plates,3_knives,2_spoons,0,boy,boy,girl,,,,,,,,boy with spoon,5247.0,kitchenwares,small,,2,8.0,,boy,,1_spoon,30.0,,boy,1,1,noDet,1
232,35,List1,Exp,,GirlAllMichaelPencils,,3,9.0,all,,AOI4,AOI10,all,,25,44-22,Michael's,,Click on the girl that has all of Michael's pencils,1.0,3_erasers,girl,2_rulers,3_scissors,2_pencils,1_eraser,1_scissor,boy,boy,girl,,,,,,,,girl with pencils,5478.0,stationeries,small,,4,10.0,,girl,,2_pencils,31.0,,girl,1,1,noDet,1
233,35,List1,Exp,,BoyAllAmyForks,,1,7.0,all,,AOI2,AOI8,all,,17,33-33,Amy's,,Click on the boy that has all of Amy's forks,1.0,2_spoons,girl,3_forks,2_knives,3_plates,1_spoon,1_knife,boy,boy,girl,,,,,,,,boy with forks,4918.0,kitchenwares,big,,2,8.0,,boy,,3_forks,32.0,,boy,1,1,noDet,1
234,35,List1,Filler,,GirlFourMichaelPencils,,3,9.0,four,,AOI4,AOI10,four,,48,44-22,Michael's,,Click on the girl that has four of Michael's pencils,1.0,1_ruler,girl,2_erasers,3_scissors,4_pencils,1_ruler,1_scissor,boy,boy,girl,,,,,,,,girl with pencils,5512.0,stationeries,big,,4,10.0,,girl,,4_pencils,33.0,,girl,1,1,noDet,1
235,35,List1,Exp,,GirlAllAmySpoons,,4,10.0,all,,AOI3,AOI9,all,,36,44-22,Amy's,,Click on the girl that has all of Amy's spoons,1.0,3_plates,girl,2_knives,2_spoons,3_forks,1_plate,1_fork,boy,boy,girl,,,,,,,,girl with spoons,5064.0,kitchenwares,small,,3,9.0,,girl,,2_spoons,34.0,,girl,1,1,noDet,1
236,35,List1,Filler,,GirlFourAmyKnives,,4,10.0,four,,AOI3,AOI9,four,,46,44-22,Amy's,,Click on the girl that has four of Amy's knives,1.0,1_spoon,girl,3_plates,4_knives,2_forks,1_spoon,1_plate,boy,boy,girl,,,,,,,,girl with knives,4266.0,kitchenwares,big,,3,9.0,,girl,,4_knives,35.0,,girl,1,1,noDet,1
237,35,List1,Exp,,GirlAllAmyPlates,,3,9.0,all,,AOI4,AOI10,all,,35,44-22,Amy's,,Click on the girl that has all of Amy's plates,1.0,3_spoons,girl,2_forks,3_knives,2_plates,1_spoon,1_knife,boy,boy,girl,,,,,,,,girl with plates,6007.0,kitchenwares,small,,4,10.0,,girl,,2_plates,36.0,,girl,1,1,noDet,1
238,35,List1,Exp,,BoyAllSusanOranges,,1,7.0,all,,AOI2,AOI8,all,,21,44-22,Susan's,,Click on the boy that has all of Susan's oranges,1.0,3_bananas,girl,2_oranges,3_apples,2_pears,1_apple,1_banana,boy,boy,girl,,,,,,,,boy with oranges,4780.0,fruit,small,,2,8.0,,boy,,2_oranges,37.0,,boy,1,1,noDet,1
239,35,List1,Exp,,BoyAllMichaelScissors,,2,8.0,all,,AOI1,AOI7,all,,7,33-33,Michael's,,Click on the boy that has all of Michael's scissors,1.0,3_scissors,girl,2_pencils,3_erasers,2_rulers,1_pencil,1_ruler,boy,boy,girl,,,,,,,,boy with scissors,5509.0,stationeries,big,,1,7.0,,boy,,3_scissors,38.0,,boy,1,1,noDet,1
240,35,List1,Filler,,GirlFourAmyPlates,,3,9.0,four,,AOI4,AOI10,four,,47,44-22,Amy's,,Click on the girl that has four of Amy's plates,1.0,1_knife,girl,3_forks,2_spoons,4_plates,1_knife,1_fork,boy,boy,girl,,,,,,,,girl with plates,4580.0,kitchenwares,big,,4,10.0,,girl,,4_plates,39.0,,girl,1,1,noDet,1
241,35,List1,Filler,,BoyOneAmyPlates,,2,8.0,one,,AOI1,AOI7,one,,38,33-33,Amy's,,Click on the boy that has one of Amy's plates,1.0,1_plate,girl,3_knives,3_forks,3_spoons,2_plates,0,boy,boy,girl,,,,,,,,boy with plate,4732.0,kitchenwares,small,,1,7.0,,boy,,1_plate,40.0,,boy,1,1,noDet,1
242,35,List1,Exp,,BoySomeSusanOranges,,1,7.0,some,,AOI2,AOI8,some,,2,33-33,Susan's,,Click on the boy that has some of Susan's oranges,1.0,3_apples,girl,2_oranges,2_bananas,3_pears,1_banana,1_orange,boy,boy,girl,,,,,,,,boy with oranges,4715.0,fruit,small,,2,8.0,,boy,,2_oranges,41.0,,boy,1,1,noDet,1
243,35,List1,Filler,,BoyFourSusanBananas,,1,7.0,four,,AOI2,AOI8,four,,44,44-22,Susan's,,Click on the boy that has four of Susan's bananas,1.0,1_orange,girl,4_bananas,3_pears,2_apples,1_orange,1_pear,boy,boy,girl,,,,,,,,boy with bananas,5603.0,fruit,big,,2,8.0,,boy,,4_bananas,42.0,,boy,1,1,noDet,1
244,35,List1,Exp,,BoySomeMichaelScissors,,1,7.0,some,,AOI2,AOI8,some,,12,33-33,Michael's,,Click on the boy that has some of Michael's scissors,1.0,3_rulers,girl,2_scissors,2_pencils,3_erasers,1_pencil,1_scissor,boy,boy,girl,,,,,,,,boy with scissors,5888.0,stationeries,small,,2,8.0,,boy,,2_scissors,43.0,,boy,1,1,noDet,1
245,35,List1,Exp,,BoyAllSusanPears,,1,7.0,all,,AOI2,AOI8,all,,3,33-33,Susan's,,Click on the boy that has all of Susan's pears,1.0,2_apples,girl,3_pears,2_bananas,3_oranges,1_apple,1_banana,boy,boy,girl,,,,,,,,boy with pears,5184.0,fruit,big,,2,8.0,,boy,,3_pears,44.0,,boy,1,1,noDet,1
246,35,List1,Exp,,GirlAllMichaelErasers,,4,10.0,all,,AOI3,AOI9,all,,26,44-22,Michael's,,Click on the girl that has all of Michael's erasers,1.0,3_pencils,girl,2_scissors,2_erasers,3_rulers,1_pencil,1_ruler,boy,boy,girl,,,,,,,,girl with erasers,5462.0,stationeries,small,,3,9.0,,girl,,2_erasers,45.0,,girl,1,1,noDet,1
247,35,List1,Exp,,GirlSomeSusanBananas,,3,9.0,some,,AOI4,AOI10,some,,19,44-22,Susan's,,Click on the girl that has some of Susan's bananas,1.0,3_oranges,girl,2_apples,2_pears,3_bananas,1_banana,1_orange,boy,boy,girl,,,,,,,,girl with bananas,4676.0,fruit,big,,4,10.0,,girl,,3_bananas,46.0,,girl,1,1,noDet,1
248,35,List1,Exp,,GirlSomeSusanApples,,4,10.0,some,,AOI3,AOI9,some,,20,44-22,Susan's,,Click on the girl that has some of Susan's apples,1.0,3_pears,girl,2_bananas,3_apples,2_oranges,1_apple,1_pear,boy,boy,girl,,,,,,,,girl with apples,4539.0,fruit,big,,3,9.0,,girl,,3_apples,47.0,,girl,1,1,noDet,1
249,35,List1,Exp,,GirlAllSusanBananas,,4,10.0,all,,AOI3,AOI9,all,,4,33-33,Susan's,,Click on the girl that has all of Susan's bananas,1.0,2_pears,girl,3_apples,3_bananas,2_oranges,1_orange,1_pear,boy,boy,girl,,,,,,,,girl with bananas,6341.0,fruit,big,,3,9.0,,girl,,3_bananas,48.0,,girl,1,1,noDet,1
250,79,List1,Prac,kitchware_Amy_Monday,,Residue_kitchen,4,,,num,AOI3,AOI9,,three,5,44-22,Amy,Click on the girl that has three of Amy's knives,,,2_spoons,girl,3_forks,3_knives,2_plates,1_fork,1_knife,boy,boy,girl,knives,D4_forks,D2_spoons,D4_knives,production practice,1.0,GirlThreeAmyknives,girl with three knives,,kitchenwares,,big,3,,girl,,3_knives,,,,girl,0,0,three,0
251,79,List1,Prac,kitchware_Amy_Tuesday,,Slience,2,,,some,AOI4,AOI10,,some,6,33-33,Amy,Click on the girl that has some of Amy's forks,,,3_spoons,girl,2_knives,3_plates,2_forks,1_fork,1_knife,boy,boy,girl,forks,D3_forks,D3_spoons,D3_knives,production practice,2.0,GirlSomeAmyforks,girl with two forks,,kitchenwares,,big,4,,girl,,2_forks,,,,girl,0,0,two,0
252,79,List1,Exp,,GirlAllMichaelRulers,,3,9.0,all,,AOI4,AOI10,all,,8,33-33,Michael's,,Click on the girl that has all of Michael's rulers,1.0,2_scissors,girl,3_pencils,2_erasers,3_rulers,1_eraser,1_scissor,boy,boy,girl,,,,,,,,girl with three rulers,6783.0,stationeries,big,,4,10.0,,girl,,3_rulers,1.0,,girl,1,1,three,1
253,79,List1,Exp,,BoyAllSusanApples,,2,8.0,all,,AOI1,AOI7,all,,22,44-22,Susan's,,Click on the boy that has all of Susan's apples,1.0,2_apples,girl,3_pears,3_oranges,2_bananas,1_orange,1_pear,boy,boy,girl,,,,,,,,boy with two apples,5319.0,fruit,small,,1,7.0,,boy,,2_apples,2.0,,boy,1,1,two,1
254,79,List1,Filler,,GirlFourAmyKnives,,4,10.0,four,,AOI3,AOI9,four,,46,44-22,Amy's,,Click on the girl that has four of Amy's knives,1.0,1_spoon,girl,3_plates,4_knives,2_forks,1_spoon,1_plate,boy,boy,girl,,,,,,,,girl with four knives,6075.0,kitchenwares,big,,3,9.0,,girl,,4_knives,3.0,,girl,1,1,four,1
255,79,List1,Exp,,BoySomeSusanOranges,,1,7.0,some,,AOI2,AOI8,some,,2,33-33,Susan's,,Click on the boy that has some of Susan's oranges,1.0,3_apples,girl,2_oranges,2_bananas,3_pears,1_banana,1_orange,boy,boy,girl,,,,,,,,boy with two oranges,3374.0,fruit,small,,2,8.0,,boy,,2_oranges,4.0,,boy,1,1,two,1
256,79,List1,Exp,,GirlThreeSusanOranges,,4,10.0,num,,AOI3,AOI9,three,,23,44-22,Susan's,,Click on the girl that has three of Susan's oranges,1.0,3_apples,girl,2_pears,3_oranges,2_bananas,1_apple,1_orange,boy,boy,girl,,,,,,,,girl with three oranges,6391.0,fruit,big,,3,9.0,,girl,,3_oranges,5.0,,girl,1,1,three,1
257,79,List1,Filler,,BoyOneAmyPlates,,2,8.0,one,,AOI1,AOI7,one,,38,33-33,Amy's,,Click on the boy that has one of Amy's plates,1.0,1_plate,girl,3_knives,3_forks,3_spoons,2_plates,0,boy,boy,girl,,,,,,,,boy with one plate,6597.0,kitchenwares,small,,1,7.0,,boy,,1_plate,6.0,,boy,1,1,one,1
258,79,List1,Exp,,BoySomeMichaelScissors,,1,7.0,some,,AOI2,AOI8,some,,12,33-33,Michael's,,Click on the boy that has some of Michael's scissors,1.0,3_rulers,girl,2_scissors,2_pencils,3_erasers,1_pencil,1_scissor,boy,boy,girl,,,,,,,,boy with two sisscors,10723.0,stationeries,small,,2,8.0,,boy,,2_scissors,7.0,,boy,1,0,two,1
259,79,List1,Filler,,GirlFourSusanOranges,,4,10.0,four,,AOI3,AOI9,four,,45,44-22,Susan's,,Click on the girl that has four of Susan's oranges,1.0,2_pears,girl,3_apples,4_oranges,1_banana,1_banana,1_apple,boy,boy,girl,,,,,,,,girl with four oranges,5872.0,fruit,big,,3,9.0,,girl,,4_oranges,8.0,,girl,1,1,four,1
260,79,List1,Exp,,BoyAllAmyForks,,1,7.0,all,,AOI2,AOI8,all,,17,33-33,Amy's,,Click on the boy that has all of Amy's forks,1.0,2_spoons,girl,3_forks,2_knives,3_plates,1_spoon,1_knife,boy,boy,girl,,,,,,,,boy with three forks,3844.0,kitchenwares,big,,2,8.0,,boy,,3_forks,9.0,,boy,1,1,three,1
261,79,List1,Filler,,BoyOneSusanApples,,2,8.0,one,,AOI1,AOI7,one,,37,33-33,Susan's,,Click on the boy that has one of Susan's apples,1.0,1_apple,girl,3_pears,3_bananas,3_oranges,2_apples,0,boy,boy,girl,,,,,,,,boy with one apple,4888.0,fruit,small,,1,7.0,,boy,,1_apple,10.0,,boy,1,1,one,1
262,79,List1,Exp,,GirlSomeAmyPlates,,3,9.0,some,,AOI4,AOI10,some,,16,33-33,Amy's,,Click on the girl that has some of Amy's plates,1.0,2_forks,girl,3_knives,3_spoons,2_plates,1_fork,1_plate,boy,boy,girl,,,,,,,,girl with two plates,3563.0,kitchenwares,small,,4,10.0,,girl,,2_plates,11.0,,girl,1,1,two,1
263,79,List1,Exp,,GirlSomeAmyKnives,,4,10.0,some,,AOI3,AOI9,some,,15,33-33,Amy's,,Click on the girl that has some of Amy's knives,1.0,2_spoons,girl,3_plates,2_knives,3_forks,1_spoon,1_knife,boy,boy,girl,,,,,,,,girl with two knives,3348.0,kitchenwares,small,,3,9.0,,girl,,2_knives,12.0,,girl,1,1,two,1
264,79,List1,Exp,,BoyThreeAmyKnives,,1,7.0,num,,AOI2,AOI8,three,,14,33-33,Amy's,,Click on the boy that has three of Amy's knives,1.0,2_spoons,girl,3_knives,2_plates,3_forks,1_spoon,1_plate,boy,boy,girl,,,,,,,,boy with three knives,4168.0,kitchenwares,big,,2,8.0,,boy,,3_knives,13.0,,boy,1,1,three,1
265,79,List1,Exp,,BoyAllAmyKnives,,2,8.0,all,,AOI1,AOI7,all,,18,33-33,Amy's,,Click on the boy that has all of Amy's knives,1.0,3_knives,girl,2_plates,3_spoons,2_forks,1_plate,1_fork,boy,boy,girl,,,,,,,,boy with three knives,4228.0,kitchenwares,big,,1,7.0,,boy,,3_knives,14.0,,boy,1,1,three,1
266,79,List1,Exp,,BoySomeMichaelPencils,,2,8.0,some,,AOI1,AOI7,some,,29,44-22,Michael's,,Click on the boy that has some of Michael's pencils,1.0,3_pencils,girl,2_erasers,3_scissors,2_rulers,1_pencil,1_scissor,boy,boy,girl,,,,,,,,boy with three pencils,4324.0,stationeries,big,,1,7.0,,boy,,3_pencils,15.0,,boy,1,1,three,1
267,79,List1,Filler,,BoyFourMichaelScissors,,2,8.0,four,,AOI1,AOI7,four,,43,44-22,Michael's,,Click on the boy that has four of Michael's scissors,1.0,4_scissors,girl,1_pencil,2_rulers,3_erasers,1_pencil,1_eraser,boy,boy,girl,,,,,,,,boy with four sisscors,5041.0,stationeries,big,,1,7.0,,boy,,4_scissors,16.0,,boy,1,0,four,1
268,79,List1,Exp,,GirlTwoMichaelRulers,,4,10.0,num,,AOI3,AOI9,two,,9,33-33,Michael's,,Click on the girl that has two of Michael's rulers,1.0,3_pencils,girl,2_scissors,2_rulers,3_erasers,1_ruler,1_scissor,boy,boy,girl,,,,,,,,girl with two rulers,4397.0,stationeries,small,,3,9.0,,girl,,2_rulers,17.0,,girl,1,1,two,1
269,79,List1,Exp,,BoyTwoMichaelPencils,,1,7.0,num,,AOI2,AOI8,two,,28,44-22,Michael's,,Click on the boy that has two of Michael's pencils,1.0,3_scissors,girl,2_pencils,2_erasers,3_rulers,1_ruler,1_scissor,boy,boy,girl,,,,,,,,boy with two pencils,3809.0,stationeries,small,,2,8.0,,boy,,2_pencils,18.0,,boy,1,1,two,1
270,79,List1,Exp,,BoyAllSusanOranges,,1,7.0,all,,AOI2,AOI8,all,,21,44-22,Susan's,,Click on the boy that has all of Susan's oranges,1.0,3_bananas,girl,2_oranges,3_apples,2_pears,1_apple,1_banana,boy,boy,girl,,,,,,,,boy with two oranges,8326.0,fruit,small,,2,8.0,,boy,,2_oranges,19.0,,boy,1,1,two,1
271,79,List1,Filler,,GirlOneSusanPears,,3,9.0,one,,AOI4,AOI10,one,,42,33-33,Susan's,,Click on the girl that has one of Susan's pears,1.0,3_bananas,girl,3_oranges,3_apples,1_pear,2_pears,0,boy,boy,girl,,,,,,,,girl with one pear,4203.0,fruit,small,,4,10.0,,girl,,1_pear,20.0,,girl,1,1,one,1
272,79,List1,Exp,,GirlAllMichaelPencils,,3,9.0,all,,AOI4,AOI10,all,,25,44-22,Michael's,,Click on the girl that has all of Michael's pencils,1.0,3_erasers,girl,2_rulers,3_scissors,2_pencils,1_eraser,1_scissor,boy,boy,girl,,,,,,,,girl with two pencils,3778.0,stationeries,small,,4,10.0,,girl,,2_pencils,21.0,,girl,1,1,two,1
273,79,List1,Exp,,BoyAllSusanPears,,1,7.0,all,,AOI2,AOI8,all,,3,33-33,Susan's,,Click on the boy that has all of Susan's pears,1.0,2_apples,girl,3_pears,2_bananas,3_oranges,1_apple,1_banana,boy,boy,girl,,,,,,,,boy with three pears,5009.0,fruit,big,,2,8.0,,boy,,3_pears,22.0,,boy,1,1,three,1
274,79,List1,Exp,,GirlTwoSusanBananas,,3,9.0,num,,AOI4,AOI10,two,,5,33-33,Susan's,,Click on the girl that has two of Susan's bananas,1.0,2_pears,girl,3_apples,3_oranges,2_bananas,1_banana,1_pear,boy,boy,girl,,,,,,,,girl with two banans,3726.0,fruit,small,,4,10.0,,girl,,2_bananas,23.0,,girl,1,0,two,1
275,79,List1,Exp,,GirlTwoAmyForks,,3,9.0,num,,AOI4,AOI10,two,,13,33-33,Amy's,,Click on the girl that has two of Amy's forks,1.0,2_knives,girl,3_spoons,3_plates,2_forks,1_fork,1_knife,boy,boy,girl,,,,,,,,girl with two forks,3802.0,kitchenwares,small,,4,10.0,,girl,,2_forks,24.0,,girl,1,1,two,1
276,79,List1,Exp,,GirlAllAmyPlates,,3,9.0,all,,AOI4,AOI10,all,,35,44-22,Amy's,,Click on the girl that has all of Amy's plates,1.0,3_spoons,girl,2_forks,3_knives,2_plates,1_spoon,1_knife,boy,boy,girl,,,,,,,,girl with two plates,3576.0,kitchenwares,small,,4,10.0,,girl,,2_plates,25.0,,girl,1,1,two,1
277,79,List1,Exp,,GirlSomeMichaelRulers,,3,9.0,some,,AOI4,AOI10,some,,30,44-22,Michael's,,Click on the girl that has some of Michael's rulers,1.0,3_erasers,girl,2_pencils,2_scissors,3_rulers,1_ruler,1_eraser,boy,boy,girl,,,,,,,,girl with three rulers,4161.0,stationeries,big,,4,10.0,,girl,,3_rulers,26.0,,girl,1,1,three,1
278,79,List1,Filler,,GirlOneMichaelErasers,,4,10.0,one,,AOI3,AOI9,one,,41,33-33,Michael's,,Click on the girl that has one of Michael's erasers,1.0,3_pencils,girl,3_scissors,1_eraser,3_rulers,2_erasers,0,boy,boy,girl,,,,,,,,girl with one eraser,4070.0,stationeries,small,,3,9.0,,girl,,1_eraser,27.0,,girl,1,1,one,1
279,79,List1,Filler,,BoyOneAmySpoons,,1,7.0,one,,AOI2,AOI8,one,,39,33-33,Amy's,,Click on the boy that has one of Amy's spoons,1.0,3_forks,girl,1_spoon,3_plates,3_knives,2_spoons,0,boy,boy,girl,,,,,,,,boy with one spoon,3265.0,kitchenwares,small,,2,8.0,,boy,,1_spoon,28.0,,boy,1,1,one,1
280,79,List1,Exp,,BoyThreeMichaelErasers,,1,7.0,num,,AOI2,AOI8,three,,27,44-22,Michael's,,Click on the boy that has three of Michael's erasers,1.0,2_rulers,girl,3_erasers,2_scissors,3_pencils,1_pencil,1_eraser,boy,boy,girl,,,,,,,,boy with three erasers,5534.0,stationeries,big,,2,8.0,,boy,,3_erasers,29.0,,boy,1,1,three,1
281,79,List1,Exp,,BoySomeMichaelErasers,,2,8.0,some,,AOI1,AOI7,some,,11,33-33,Michael's,,Click on the boy that has some of Michael's erasers,1.0,2_erasers,girl,3_pencils,2_rulers,3_scissors,1_ruler,1_eraser,boy,boy,girl,,,,,,,,boy with two erasers,5397.0,stationeries,small,,1,7.0,,boy,,2_erasers,30.0,,boy,1,1,two,1
282,79,List1,Exp,,BoyThreeAmyPlates,,2,8.0,num,,AOI1,AOI7,three,,31,44-22,Amy's,,Click on the boy that has three of Amy's plates,1.0,3_plates,girl,2_forks,3_spoons,2_knives,1_spoon,1_plate,boy,boy,girl,,,,,,,,boy with three plate,4826.0,kitchenwares,big,,1,7.0,,boy,,3_plates,31.0,,boy,1,1,three,1
283,79,List1,Filler,,GirlFourAmyPlates,,3,9.0,four,,AOI4,AOI10,four,,47,44-22,Amy's,,Click on the girl that has four of Amy's plates,1.0,1_knife,girl,3_forks,2_spoons,4_plates,1_knife,1_fork,boy,boy,girl,,,,,,,,girl with four plates,6365.0,kitchenwares,big,,4,10.0,,girl,,4_plates,32.0,,girl,1,1,four,1
284,79,List1,Exp,,GirlAllMichaelErasers,,4,10.0,all,,AOI3,AOI9,all,,26,44-22,Michael's,,Click on the girl that has all of Michael's erasers,1.0,3_pencils,girl,2_scissors,2_erasers,3_rulers,1_pencil,1_ruler,boy,boy,girl,,,,,,,,girl with two erasers,7045.0,stationeries,small,,3,9.0,,girl,,2_erasers,33.0,,girl,1,1,two,1
285,79,List1,Exp,,GirlAllSusanBananas,,4,10.0,all,,AOI3,AOI9,all,,4,33-33,Susan's,,Click on the girl that has all of Susan's bananas,1.0,2_pears,girl,3_apples,3_bananas,2_oranges,1_orange,1_pear,boy,boy,girl,,,,,,,,girl with three bananas,6439.0,fruit,big,,3,9.0,,girl,,3_bananas,34.0,,girl,1,1,three,1
286,79,List1,Exp,,GirlThreeSusanPears,,3,9.0,num,,AOI4,AOI10,three,,6,33-33,Susan's,,Click on the girl that has three of Susan's pears,1.0,2_oranges,girl,3_bananas,2_apples,3_pears,1_apple,1_orange,boy,boy,girl,,,,,,,,girl with three pears,3298.0,fruit,big,,4,10.0,,girl,,3_pears,35.0,,girl,1,1,three,1
287,79,List1,Exp,,BoyAllMichaelScissors,,2,8.0,all,,AOI1,AOI7,all,,7,33-33,Michael's,,Click on the boy that has all of Michael's scissors,1.0,3_scissors,girl,2_pencils,3_erasers,2_rulers,1_pencil,1_ruler,boy,boy,girl,,,,,,,,boy with three scissors,13374.0,stationeries,big,,1,7.0,,boy,,3_scissors,36.0,,boy,1,1,three,1
288,79,List1,Exp,,BoySomeAmySpoons,,1,7.0,some,,AOI2,AOI8,some,,33,44-22,Amy's,,Click on the boy that has some of Amy's spoons,1.0,2_plates,girl,3_spoons,2_forks,3_knives,1_spoon,1_knife,boy,boy,girl,,,,,,,,boy with three spoons,4378.0,kitchenwares,big,,2,8.0,,boy,,3_spoons,37.0,,boy,1,1,three,1
289,79,List1,Exp,,BoyTwoSusanApples,,2,8.0,num,,AOI1,AOI7,two,,24,44-22,Susan's,,Click on the boy that has two of Susan's apples,1.0,2_apples,girl,3_pears,3_bananas,2_oranges,1_banana,1_pear,boy,boy,girl,,,,,,,,boy with two apples,3994.0,fruit,small,,1,7.0,,boy,,2_apples,38.0,,boy,1,1,two,1
290,79,List1,Exp,,GirlSomeAmyForks,,4,10.0,some,,AOI3,AOI9,some,,34,44-22,Amy's,,Click on the girl that has some of Amy's forks,1.0,2_spoons,girl,3_plates,3_forks,2_knives,1_fork,1_plate,boy,boy,girl,,,,,,,,girl with three forks,3286.0,kitchenwares,big,,3,9.0,,girl,,3_forks,39.0,,girl,1,1,three,1
291,79,List1,Exp,,GirlThreeMichaelScissors,,4,10.0,num,,AOI3,AOI9,three,,10,33-33,Michael's,,Click on the girl that has three of Michael's scissors,1.0,3_rulers,girl,2_erasers,3_scissors,2_pencils,1_pencil,1_eraser,boy,boy,girl,,,,,,,,girl with three scissors,4201.0,stationeries,big,,3,9.0,,girl,,3_scissors,40.0,,girl,1,1,three,1
292,79,List1,Exp,,GirlSomeSusanBananas,,3,9.0,some,,AOI4,AOI10,some,,19,44-22,Susan's,,Click on the girl that has some of Susan's bananas,1.0,3_oranges,girl,2_apples,2_pears,3_bananas,1_banana,1_orange,boy,boy,girl,,,,,,,,girl with three bananas,4875.0,fruit,big,,4,10.0,,girl,,3_bananas,41.0,,girl,1,1,three,1
293,79,List1,Exp,,GirlSomeSusanApples,,4,10.0,some,,AOI3,AOI9,some,,20,44-22,Susan's,,Click on the girl that has some of Susan's apples,1.0,3_pears,girl,2_bananas,3_apples,2_oranges,1_apple,1_pear,boy,boy,girl,,,,,,,,girl with three apples,4091.0,fruit,big,,3,9.0,,girl,,3_apples,42.0,,girl,1,1,three,1
294,79,List1,Exp,,BoyTwoAmySpoons,,2,8.0,num,,AOI1,AOI7,two,,32,44-22,Amy's,,Click on the boy that has two of Amy's spoons,1.0,2_spoons,girl,3_knives,3_forks,2_plates,1_fork,1_knife,boy,boy,girl,,,,,,,,boy with two spoons,9385.0,kitchenwares,small,,1,7.0,,boy,,2_spoons,43.0,,boy,1,1,two,1
295,79,List1,Exp,,GirlAllAmySpoons,,4,10.0,all,,AOI3,AOI9,all,,36,44-22,Amy's,,Click on the girl that has all of Amy's spoons,1.0,3_plates,girl,2_knives,2_spoons,3_forks,1_plate,1_fork,boy,boy,girl,,,,,,,,girl with two spoons,6138.0,kitchenwares,small,,3,9.0,,girl,,2_spoons,44.0,,girl,1,1,two,1
296,79,List1,Filler,,BoyOneMichaelRulers,,1,7.0,one,,AOI2,AOI8,one,,40,33-33,Michael's,,Click on the boy that has one of Michael's rulers,1.0,3_erasers,girl,1_ruler,3_pencils,3_scissors,2_scissors,0,boy,boy,girl,,,,,,,,boy with one ruler,4327.0,stationeries,small,,2,8.0,,boy,,1_ruler,45.0,,boy,1,1,one,1
297,79,List1,Filler,,BoyFourSusanBananas,,1,7.0,four,,AOI2,AOI8,four,,44,44-22,Susan's,,Click on the boy that has four of Susan's bananas,1.0,1_orange,girl,4_bananas,3_pears,2_apples,1_orange,1_pear,boy,boy,girl,,,,,,,,boy with four bananas,5139.0,fruit,big,,2,8.0,,boy,,4_bananas,46.0,,boy,1,1,four,1
298,79,List1,Filler,,GirlFourMichaelPencils,,3,9.0,four,,AOI4,AOI10,four,,48,44-22,Michael's,,Click on the girl that has four of Michael's pencils,1.0,1_ruler,girl,2_erasers,3_scissors,4_pencils,1_ruler,1_scissor,boy,boy,girl,,,,,,,,girl with four pencils,5316.0,stationeries,big,,4,10.0,,girl,,4_pencils,47.0,,girl,1,1,four,1
299,79,List1,Exp,,BoySomeSusanPears,,2,8.0,some,,AOI1,AOI7,some,,1,33-33,Susan's,,Click on the boy that has some of Susan's pears,1.0,2_pears,girl,3_bananas,2_apples,3_oranges,1_apple,1_pear,boy,boy,girl,,,,,,,,boy with pear,3141.0,fruit,small,,1,7.0,,boy,,2_pears,48.0,,boy,1,1,noDet,1
300,32,List1,Prac,kitchware_Amy_Monday,,Residue_kitchen,4,,,num,AOI3,AOI9,,three,5,44-22,Amy,Click on the girl that has three of Amy's knives,,,2_spoons,girl,3_forks,3_knives,2_plates,1_fork,1_knife,boy,boy,girl,knives,D4_forks,D2_spoons,D4_knives,production practice,1.0,GirlThreeAmyknives,woman with the knives.,,kitchenwares,,big,3,,girl,,3_knives,,,,noGender,1,0,noDet,1
301,32,List1,Prac,kitchware_Amy_Tuesday,,Slience,2,,,some,AOI4,AOI10,,some,6,33-33,Amy,Click on the girl that has some of Amy's forks,,,3_spoons,girl,2_knives,3_plates,2_forks,1_fork,1_knife,boy,boy,girl,forks,D3_forks,D3_spoons,D3_knives,production practice,2.0,GirlSomeAmyforks,woman with the forks.,,kitchenwares,,big,4,,girl,,2_forks,,,,noGender,1,0,noDet,1
302,32,List1,Exp,,BoySomeSusanPears,,2,8.0,some,,AOI1,AOI7,some,,1,33-33,Susan's,,Click on the boy that has some of Susan's pears,1.0,2_pears,girl,3_bananas,2_apples,3_oranges,1_apple,1_pear,boy,boy,girl,,,,,,,,boy with the pears.,9296.0,fruit,small,,1,7.0,,boy,,2_pears,1.0,,boy,1,1,noDet,1
303,32,List1,Exp,,BoyAllSusanApples,,2,8.0,all,,AOI1,AOI7,all,,22,44-22,Susan's,,Click on the boy that has all of Susan's apples,1.0,2_apples,girl,3_pears,3_oranges,2_bananas,1_orange,1_pear,boy,boy,girl,,,,,,,,boy with the apples.,9391.0,fruit,small,,1,7.0,,boy,,2_apples,2.0,,boy,1,1,noDet,1
304,32,List1,Filler,,GirlFourAmyPlates,,3,9.0,four,,AOI4,AOI10,four,,47,44-22,Amy's,,Click on the girl that has four of Amy's plates,1.0,1_knife,girl,3_forks,2_spoons,4_plates,1_knife,1_fork,boy,boy,girl,,,,,,,,girl with the plates.,7054.0,kitchenwares,big,,4,10.0,,girl,,4_plates,3.0,,girl,1,1,noDet,1
305,32,List1,Exp,,GirlSomeAmyForks,,4,10.0,some,,AOI3,AOI9,some,,34,44-22,Amy's,,Click on the girl that has some of Amy's forks,1.0,2_spoons,girl,3_plates,3_forks,2_knives,1_fork,1_plate,boy,boy,girl,,,,,,,,girl with the forks.,5926.0,kitchenwares,big,,3,9.0,,girl,,3_forks,4.0,,girl,1,1,noDet,1
306,32,List1,Exp,,BoyAllSusanPears,,1,7.0,all,,AOI2,AOI8,all,,3,33-33,Susan's,,Click on the boy that has all of Susan's pears,1.0,2_apples,girl,3_pears,2_bananas,3_oranges,1_apple,1_banana,boy,boy,girl,,,,,,,,boy with the pears.,5940.0,fruit,big,,2,8.0,,boy,,3_pears,5.0,,boy,1,1,noDet,1
307,32,List1,Exp,,BoyAllMichaelScissors,,2,8.0,all,,AOI1,AOI7,all,,7,33-33,Michael's,,Click on the boy that has all of Michael's scissors,1.0,3_scissors,girl,2_pencils,3_erasers,2_rulers,1_pencil,1_ruler,boy,boy,girl,,,,,,,,boy with the scissors.,6886.0,stationeries,big,,1,7.0,,boy,,3_scissors,6.0,,boy,1,1,noDet,1
308,32,List1,Exp,,GirlTwoAmyForks,,3,9.0,num,,AOI4,AOI10,two,,13,33-33,Amy's,,Click on the girl that has two of Amy's forks,1.0,2_knives,girl,3_spoons,3_plates,2_forks,1_fork,1_knife,boy,boy,girl,,,,,,,,girl with the forks.,6244.0,kitchenwares,small,,4,10.0,,girl,,2_forks,7.0,,girl,1,1,noDet,1
309,32,List1,Exp,,GirlAllAmyPlates,,3,9.0,all,,AOI4,AOI10,all,,35,44-22,Amy's,,Click on the girl that has all of Amy's plates,1.0,3_spoons,girl,2_forks,3_knives,2_plates,1_spoon,1_knife,boy,boy,girl,,,,,,,,girl with the plates.,5884.0,kitchenwares,small,,4,10.0,,girl,,2_plates,8.0,,girl,1,1,noDet,1
310,32,List1,Exp,,BoyAllSusanOranges,,1,7.0,all,,AOI2,AOI8,all,,21,44-22,Susan's,,Click on the boy that has all of Susan's oranges,1.0,3_bananas,girl,2_oranges,3_apples,2_pears,1_apple,1_banana,boy,boy,girl,,,,,,,,boy with the oranges.,31095.0,fruit,small,,2,8.0,,boy,,2_oranges,9.0,,boy,1,1,noDet,1
311,32,List1,Filler,,BoyOneSusanApples,,2,8.0,one,,AOI1,AOI7,one,,37,33-33,Susan's,,Click on the boy that has one of Susan's apples,1.0,1_apple,girl,3_pears,3_bananas,3_oranges,2_apples,0,boy,boy,girl,,,,,,,,boy with the apple.,6784.0,fruit,small,,1,7.0,,boy,,1_apple,10.0,,boy,1,1,noDet,1
312,32,List1,Exp,,GirlAllMichaelPencils,,3,9.0,all,,AOI4,AOI10,all,,25,44-22,Michael's,,Click on the girl that has all of Michael's pencils,1.0,3_erasers,girl,2_rulers,3_scissors,2_pencils,1_eraser,1_scissor,boy,boy,girl,,,,,,,,girl with the pencils.,5512.0,stationeries,small,,4,10.0,,girl,,2_pencils,11.0,,girl,1,1,noDet,1
313,32,List1,Exp,,GirlThreeSusanOranges,,4,10.0,num,,AOI3,AOI9,three,,23,44-22,Susan's,,Click on the girl that has three of Susan's oranges,1.0,3_apples,girl,2_pears,3_oranges,2_bananas,1_apple,1_orange,boy,boy,girl,,,,,,,,girl with the oranges.,4532.0,fruit,big,,3,9.0,,girl,,3_oranges,12.0,,girl,1,1,noDet,1
314,32,List1,Exp,,BoyThreeMichaelErasers,,1,7.0,num,,AOI2,AOI8,three,,27,44-22,Michael's,,Click on the boy that has three of Michael's erasers,1.0,2_rulers,girl,3_erasers,2_scissors,3_pencils,1_pencil,1_eraser,boy,boy,girl,,,,,,,,boy with the erasers.,5041.0,stationeries,big,,2,8.0,,boy,,3_erasers,13.0,,boy,1,1,noDet,1
315,32,List1,Exp,,GirlAllAmySpoons,,4,10.0,all,,AOI3,AOI9,all,,36,44-22,Amy's,,Click on the girl that has all of Amy's spoons,1.0,3_plates,girl,2_knives,2_spoons,3_forks,1_plate,1_fork,boy,boy,girl,,,,,,,,girl with the spoons.,5029.0,kitchenwares,small,,3,9.0,,girl,,2_spoons,14.0,,girl,1,1,noDet,1
316,32,List1,Exp,,GirlAllSusanBananas,,4,10.0,all,,AOI3,AOI9,all,,4,33-33,Susan's,,Click on the girl that has all of Susan's bananas,1.0,2_pears,girl,3_apples,3_bananas,2_oranges,1_orange,1_pear,boy,boy,girl,,,,,,,,girl with the bananas.,7132.0,fruit,big,,3,9.0,,girl,,3_bananas,15.0,,girl,1,1,noDet,1
317,32,List1,Exp,,GirlSomeSusanBananas,,3,9.0,some,,AOI4,AOI10,some,,19,44-22,Susan's,,Click on the girl that has some of Susan's bananas,1.0,3_oranges,girl,2_apples,2_pears,3_bananas,1_banana,1_orange,boy,boy,girl,,,,,,,,girl with the bananas.,5490.0,fruit,big,,4,10.0,,girl,,3_bananas,16.0,,girl,1,1,noDet,1
318,32,List1,Exp,,GirlSomeAmyPlates,,3,9.0,some,,AOI4,AOI10,some,,16,33-33,Amy's,,Click on the girl that has some of Amy's plates,1.0,2_forks,girl,3_knives,3_spoons,2_plates,1_fork,1_plate,boy,boy,girl,,,,,,,,girl with the plates.,5896.0,kitchenwares,small,,4,10.0,,girl,,2_plates,17.0,,girl,1,1,noDet,1
319,32,List1,Exp,,GirlAllMichaelRulers,,3,9.0,all,,AOI4,AOI10,all,,8,33-33,Michael's,,Click on the girl that has all of Michael's rulers,1.0,2_scissors,girl,3_pencils,2_erasers,3_rulers,1_eraser,1_scissor,boy,boy,girl,,,,,,,,girl with the rulers.,5501.0,stationeries,big,,4,10.0,,girl,,3_rulers,18.0,,girl,1,1,noDet,1
320,32,List1,Exp,,BoyAllAmyForks,,1,7.0,all,,AOI2,AOI8,all,,17,33-33,Amy's,,Click on the boy that has all of Amy's forks,1.0,2_spoons,girl,3_forks,2_knives,3_plates,1_spoon,1_knife,boy,boy,girl,,,,,,,,boy with the forks.,4916.0,kitchenwares,big,,2,8.0,,boy,,3_forks,19.0,,boy,1,1,noDet,1
321,32,List1,Exp,,BoyTwoMichaelPencils,,1,7.0,num,,AOI2,AOI8,two,,28,44-22,Michael's,,Click on the boy that has two of Michael's pencils,1.0,3_scissors,girl,2_pencils,2_erasers,3_rulers,1_ruler,1_scissor,boy,boy,girl,,,,,,,,boy with the pencils.,6097.0,stationeries,small,,2,8.0,,boy,,2_pencils,20.0,,boy,1,1,noDet,1
322,32,List1,Exp,,BoySomeMichaelScissors,,1,7.0,some,,AOI2,AOI8,some,,12,33-33,Michael's,,Click on the boy that has some of Michael's scissors,1.0,3_rulers,girl,2_scissors,2_pencils,3_erasers,1_pencil,1_scissor,boy,boy,girl,,,,,,,,boy with the scissors.,6604.0,stationeries,small,,2,8.0,,boy,,2_scissors,21.0,,boy,1,1,noDet,1
323,32,List1,Exp,,GirlAllMichaelErasers,,4,10.0,all,,AOI3,AOI9,all,,26,44-22,Michael's,,Click on the girl that has all of Michael's erasers,1.0,3_pencils,girl,2_scissors,2_erasers,3_rulers,1_pencil,1_ruler,boy,boy,girl,,,,,,,,girl with the erasers.,7155.0,stationeries,small,,3,9.0,,girl,,2_erasers,22.0,,girl,1,1,noDet,1
