workerid,proliferate.condition,ExpFiller,Intro_object,Prime,Res_object,clicking_practice_trial_number,competitor1,competitor2,condition,condition1,correctAns1,correctAns2,determiner,determiner1,displayID,display_type,figure,instruction1,instruction3,list,location1,location10,location2,location3,location4,location5,location6,location7,location8,location9,object1,object2,object3,object4,practiceTrialType,practice_trial_number,prime,response,response_times,setting,size,size1,target1,target2,target_figure1,target_figure3,target_object1,target_object3,trial_number,catch_trials,subject_information.age,subject_information.asses,subject_information.comments,subject_information.education,subject_information.enjoyment,subject_information.fairprice,subject_information.gender,subject_information.language,subject_information.problems,system.Browser,system.OS,system.screenH,system.screenW,time_in_minutes,error
6,condition1,Prac,Fruit_Susan_Monday,,Fruit_residue,1,2,,,two,AOI1,AOI7,,two,1,33-33,Susan,Click on the boy that has two of Susan's apples,,,2_apples,girl,3_bananas,2_pears,3_oranges,1_apple,1_pear,boy,boy,girl,apples,D3_pears,D3_bananas,D3_oranges,clicking practice,,BoyTwoSusanapples,"['AOI9', 'AOI7', 'AOI7', 'AOI7']",,fruit,,small,1,,boy,,2_apples,,,[],23,Yes,,4,1,,Female,english,no,Safari,Mac,800,1280,6.1555333333333335,
6,condition1,Prac,Fruit_Susan_Tuesday,,Slience,2,1,,,some,AOI3,AOI9,,some,2,44-22,Susan,Click on the girl that has some of Susan's apples,,,3_bananas,girl,2_pears,3_apples,2_oranges,1_apple,1_banana,boy,boy,girl,apples,D2_pears,D4_bananas,D2_oranges,clicking practice,,GirlSomeSusanapples,"['AOI7', 'AOI10', 'AOI10', 'AOI10']",,fruit,,small,3,,girl,,3_apples,,,[],23,Yes,,4,1,,Female,english,no,Safari,Mac,800,1280,6.1555333333333335,
6,condition1,Prac,Stationary_Michael_Monday,,Residue_stationary,3,4,,,num,AOI1,AOI7,,three,3,33-33,Michael,Click on the boy that has three of Michael's scissors,,,3_scissors,girl,2_pencils,3_erasers,2_rulers,1_pencil,1_ruler,boy,boy,girl,erasers,D3_pencils,D3_erasers,D3_rulers,clicking practice,,BoyThreeMichaelscissors,"['AOI10', 'AOI8', 'AOI8', 'AOI7']",,office supplies,,big,1,,boy,,3_scissors,,,[],23,Yes,,4,1,,Female,english,no,Safari,Mac,800,1280,6.1555333333333335,
6,condition1,Prac,Stationary_Michael_Tuesday,,Residue_stationary,4,3,,,all,AOI4,AOI10,,all,4,44-22,Michael,Click on the girl that has all of Michael's rulers,,,3_pencils,girl,2_scissors,3_erasers,2_rulers,1_pencil,1_eraser,boy,boy,girl,rulers,D4_pencils,D4_erasers,D2_rulers,clicking practice,,GirlAllMichaelrulers,"['AOI9', 'AOI9', 'AOI9', 'AOI10']",,office supplies,,small,4,,girl,,2_rulers,,,[],23,Yes,,4,1,,Female,english,no,Safari,Mac,800,1280,6.1555333333333335,
6,condition1,Prac,kitchware_Amy_Monday,,Residue_kitchen,,4,,,num,AOI3,AOI9,,three,5,44-22,Amy,Click on the girl that has three of Amy's knives,,,2_spoons,girl,3_forks,3_knives,2_plates,1_fork,1_knife,boy,boy,girl,knives,D4_forks,D2_spoons,D4_knives,production practice,1,GirlThreeAmyknives,girl,,kitchenwares,,big,3,,girl,,3_knives,,,[],23,Yes,,4,1,,Female,english,no,Safari,Mac,800,1280,6.1555333333333335,
6,condition1,Prac,kitchware_Amy_Tuesday,,Slience,,2,,,some,AOI4,AOI10,,some,6,33-33,Amy,Click on the girl that has some of Amy's forks,,,3_spoons,girl,2_knives,3_plates,2_forks,1_fork,1_knife,boy,boy,girl,forks,D3_forks,D3_spoons,D3_knives,production practice,2,GirlSomeAmyforks,girl with the knives,,kitchenwares,,big,4,,girl,,2_forks,,,[],23,Yes,,4,1,,Female,english,no,Safari,Mac,800,1280,6.1555333333333335,
6,condition1,Exp,,BoyTwoAmySpoons,,,2,8,num,,AOI1,AOI7,two,,32,44-22,Amy's,,Click on the boy that has two of Amy's spoons,1,2_spoons,girl,3_knives,3_forks,2_plates,1_fork,1_knife,boy,boy,girl,,,,,,,,boy with the spoons,5103,kitchenwares,small,,1,7,,boy,,2_spoons,1,[],23,Yes,,4,1,,Female,english,no,Safari,Mac,800,1280,6.1555333333333335,
6,condition1,Exp,,GirlTwoAmyForks,,,3,9,num,,AOI4,AOI10,two,,13,33-33,Amy's,,Click on the girl that has two of Amy's forks,1,2_knives,girl,3_spoons,3_plates,2_forks,1_fork,1_knife,boy,boy,girl,,,,,,,,girl with the knife,4063,kitchenwares,small,,4,10,,girl,,2_forks,2,[],23,Yes,,4,1,,Female,english,no,Safari,Mac,800,1280,6.1555333333333335,
6,condition1,Exp,,BoyTwoMichaelPencils,,,1,7,num,,AOI2,AOI8,two,,28,44-22,Michael's,,Click on the boy that has two of Michael's pencils,1,3_scissors,girl,2_pencils,2_erasers,3_rulers,1_ruler,1_scissor,boy,boy,girl,,,,,,,,boy with the pencils,3733,stationeries,small,,2,8,,boy,,2_pencils,3,[],23,Yes,,4,1,,Female,english,no,Safari,Mac,800,1280,6.1555333333333335,
6,condition1,Exp,,BoyTwoSusanApples,,,2,8,num,,AOI1,AOI7,two,,24,44-22,Susan's,,Click on the boy that has two of Susan's apples,1,2_apples,girl,3_pears,3_bananas,2_oranges,1_banana,1_pear,boy,boy,girl,,,,,,,,boy with the apples,3440,fruit,small,,1,7,,boy,,2_apples,4,[],23,Yes,,4,1,,Female,english,no,Safari,Mac,800,1280,6.1555333333333335,
6,condition1,Filler,,GirlFourMichaelPencils,,,3,9,four,,AOI4,AOI10,four,,48,44-22,Michael's,,Click on the girl that has four of Michael's pencils,1,1_ruler,girl,2_erasers,3_scissors,4_pencils,1_ruler,1_scissor,boy,boy,girl,,,,,,,,girl with the pencils,4048,stationeries,big,,4,10,,girl,,4_pencils,5,[],23,Yes,,4,1,,Female,english,no,Safari,Mac,800,1280,6.1555333333333335,
6,condition1,Exp,,GirlAllMichaelRulers,,,3,9,all,,AOI4,AOI10,all,,8,33-33,Michael's,,Click on the girl that has all of Michael's rulers,1,2_scissors,girl,3_pencils,2_erasers,3_rulers,1_eraser,1_scissor,boy,boy,girl,,,,,,,,girl with the rulers,4070,stationeries,big,,4,10,,girl,,3_rulers,6,[],23,Yes,,4,1,,Female,english,no,Safari,Mac,800,1280,6.1555333333333335,
6,condition1,Filler,,GirlFourSusanOranges,,,4,10,four,,AOI3,AOI9,four,,45,44-22,Susan's,,Click on the girl that has four of Susan's oranges,1,2_pears,girl,3_apples,4_oranges,1_banana,1_banana,1_apple,boy,boy,girl,,,,,,,,girl with the oranges,3854,fruit,big,,3,9,,girl,,4_oranges,7,[],23,Yes,,4,1,,Female,english,no,Safari,Mac,800,1280,6.1555333333333335,
6,condition1,Exp,,BoyAllSusanPears,,,1,7,all,,AOI2,AOI8,all,,3,33-33,Susan's,,Click on the boy that has all of Susan's pears,1,2_apples,girl,3_pears,2_bananas,3_oranges,1_apple,1_banana,boy,boy,girl,,,,,,,,boy with the pears,4663,fruit,big,,2,8,,boy,,3_pears,8,[],23,Yes,,4,1,,Female,english,no,Safari,Mac,800,1280,6.1555333333333335,
6,condition1,Exp,,GirlSomeSusanApples,,,4,10,some,,AOI3,AOI9,some,,20,44-22,Susan's,,Click on the girl that has some of Susan's apples,1,3_pears,girl,2_bananas,3_apples,2_oranges,1_apple,1_pear,boy,boy,girl,,,,,,,,girl with the apples,5338,fruit,big,,3,9,,girl,,3_apples,9,[],23,Yes,,4,1,,Female,english,no,Safari,Mac,800,1280,6.1555333333333335,
6,condition1,Filler,,GirlFourAmyKnives,,,4,10,four,,AOI3,AOI9,four,,46,44-22,Amy's,,Click on the girl that has four of Amy's knives,1,1_spoon,girl,3_plates,4_knives,2_forks,1_spoon,1_plate,boy,boy,girl,,,,,,,,girl with the knives,4078,kitchenwares,big,,3,9,,girl,,4_knives,10,[],23,Yes,,4,1,,Female,english,no,Safari,Mac,800,1280,6.1555333333333335,
6,condition1,Exp,,GirlAllMichaelPencils,,,3,9,all,,AOI4,AOI10,all,,25,44-22,Michael's,,Click on the girl that has all of Michael's pencils,1,3_erasers,girl,2_rulers,3_scissors,2_pencils,1_eraser,1_scissor,boy,boy,girl,,,,,,,,girl with the pencils,4709,stationeries,small,,4,10,,girl,,2_pencils,11,[],23,Yes,,4,1,,Female,english,no,Safari,Mac,800,1280,6.1555333333333335,
6,condition1,Filler,,BoyFourMichaelScissors,,,2,8,four,,AOI1,AOI7,four,,43,44-22,Michael's,,Click on the boy that has four of Michael's scissors,1,4_scissors,girl,1_pencil,2_rulers,3_erasers,1_pencil,1_eraser,boy,boy,girl,,,,,,,,boy with the scissors,5530,stationeries,big,,1,7,,boy,,4_scissors,12,[],23,Yes,,4,1,,Female,english,no,Safari,Mac,800,1280,6.1555333333333335,
6,condition1,Exp,,GirlTwoSusanBananas,,,3,9,num,,AOI4,AOI10,two,,5,33-33,Susan's,,Click on the girl that has two of Susan's bananas,1,2_pears,girl,3_apples,3_oranges,2_bananas,1_banana,1_pear,boy,boy,girl,,,,,,,,girl with the bananas,7981,fruit,small,,4,10,,girl,,2_bananas,13,[],23,Yes,,4,1,,Female,english,no,Safari,Mac,800,1280,6.1555333333333335,
6,condition1,Exp,,GirlThreeSusanOranges,,,4,10,num,,AOI3,AOI9,three,,23,44-22,Susan's,,Click on the girl that has three of Susan's oranges,1,3_apples,girl,2_pears,3_oranges,2_bananas,1_apple,1_orange,boy,boy,girl,,,,,,,,girl with the oranges,17587,fruit,big,,3,9,,girl,,3_oranges,14,[],23,Yes,,4,1,,Female,english,no,Safari,Mac,800,1280,6.1555333333333335,
6,condition1,Filler,,BoyOneAmySpoons,,,1,7,one,,AOI2,AOI8,one,,39,33-33,Amy's,,Click on the boy that has one of Amy's spoons,1,3_forks,girl,1_spoon,3_plates,3_knives,2_spoons,0,boy,boy,girl,,,,,,,,boy with the spoon ,3094,kitchenwares,small,,2,8,,boy,,1_spoon,15,[],23,Yes,,4,1,,Female,english,no,Safari,Mac,800,1280,6.1555333333333335,
6,condition1,Exp,,BoyThreeMichaelErasers,,,1,7,num,,AOI2,AOI8,three,,27,44-22,Michael's,,Click on the boy that has three of Michael's erasers,1,2_rulers,girl,3_erasers,2_scissors,3_pencils,1_pencil,1_eraser,boy,boy,girl,,,,,,,,boy with rubbers,4325,stationeries,big,,2,8,,boy,,3_erasers,16,[],23,Yes,,4,1,,Female,english,no,Safari,Mac,800,1280,6.1555333333333335,
6,condition1,Filler,,GirlOneMichaelErasers,,,4,10,one,,AOI3,AOI9,one,,41,33-33,Michael's,,Click on the girl that has one of Michael's erasers,1,3_pencils,girl,3_scissors,1_eraser,3_rulers,2_erasers,0,boy,boy,girl,,,,,,,,girl with the rubber,4004,stationeries,small,,3,9,,girl,,1_eraser,17,[],23,Yes,,4,1,,Female,english,no,Safari,Mac,800,1280,6.1555333333333335,
6,condition1,Exp,,GirlThreeMichaelScissors,,,4,10,num,,AOI3,AOI9,three,,10,33-33,Michael's,,Click on the girl that has three of Michael's scissors,1,3_rulers,girl,2_erasers,3_scissors,2_pencils,1_pencil,1_eraser,boy,boy,girl,,,,,,,,girl with the scissors,8851,stationeries,big,,3,9,,girl,,3_scissors,18,[],23,Yes,,4,1,,Female,english,no,Safari,Mac,800,1280,6.1555333333333335,
6,condition1,Exp,,GirlSomeSusanBananas,,,3,9,some,,AOI4,AOI10,some,,19,44-22,Susan's,,Click on the girl that has some of Susan's bananas,1,3_oranges,girl,2_apples,2_pears,3_bananas,1_banana,1_orange,boy,boy,girl,,,,,,,,girl with the bananas,7128,fruit,big,,4,10,,girl,,3_bananas,19,[],23,Yes,,4,1,,Female,english,no,Safari,Mac,800,1280,6.1555333333333335,
6,condition1,Exp,,GirlSomeAmyForks,,,4,10,some,,AOI3,AOI9,some,,34,44-22,Amy's,,Click on the girl that has some of Amy's forks,1,2_spoons,girl,3_plates,3_forks,2_knives,1_fork,1_plate,boy,boy,girl,,,,,,,,girl with the forks,3601,kitchenwares,big,,3,9,,girl,,3_forks,20,[],23,Yes,,4,1,,Female,english,no,Safari,Mac,800,1280,6.1555333333333335,
6,condition1,Exp,,GirlSomeMichaelRulers,,,3,9,some,,AOI4,AOI10,some,,30,44-22,Michael's,,Click on the girl that has some of Michael's rulers,1,3_erasers,girl,2_pencils,2_scissors,3_rulers,1_ruler,1_eraser,boy,boy,girl,,,,,,,,girl with rulers,3345,stationeries,big,,4,10,,girl,,3_rulers,21,[],23,Yes,,4,1,,Female,english,no,Safari,Mac,800,1280,6.1555333333333335,
6,condition1,Exp,,GirlAllSusanBananas,,,4,10,all,,AOI3,AOI9,all,,4,33-33,Susan's,,Click on the girl that has all of Susan's bananas,1,2_pears,girl,3_apples,3_bananas,2_oranges,1_orange,1_pear,boy,boy,girl,,,,,,,,girl with the bananas,4521,fruit,big,,3,9,,girl,,3_bananas,22,[],23,Yes,,4,1,,Female,english,no,Safari,Mac,800,1280,6.1555333333333335,
6,condition1,Exp,,BoyAllMichaelScissors,,,2,8,all,,AOI1,AOI7,all,,7,33-33,Michael's,,Click on the boy that has all of Michael's scissors,1,3_scissors,girl,2_pencils,3_erasers,2_rulers,1_pencil,1_ruler,boy,boy,girl,,,,,,,,boy with the scissors,4934,stationeries,big,,1,7,,boy,,3_scissors,23,[],23,Yes,,4,1,,Female,english,no,Safari,Mac,800,1280,6.1555333333333335,
6,condition1,Exp,,GirlAllAmySpoons,,,4,10,all,,AOI3,AOI9,all,,36,44-22,Amy's,,Click on the girl that has all of Amy's spoons,1,3_plates,girl,2_knives,2_spoons,3_forks,1_plate,1_fork,boy,boy,girl,,,,,,,,girl with the spons,5072,kitchenwares,small,,3,9,,girl,,2_spoons,24,[],23,Yes,,4,1,,Female,english,no,Safari,Mac,800,1280,6.1555333333333335,
6,condition1,Exp,,BoyThreeAmyPlates,,,2,8,num,,AOI1,AOI7,three,,31,44-22,Amy's,,Click on the boy that has three of Amy's plates,1,3_plates,girl,2_forks,3_spoons,2_knives,1_spoon,1_plate,boy,boy,girl,,,,,,,,boy with plates,4962,kitchenwares,big,,1,7,,boy,,3_plates,25,[],23,Yes,,4,1,,Female,english,no,Safari,Mac,800,1280,6.1555333333333335,
6,condition1,Exp,,BoyAllAmyKnives,,,2,8,all,,AOI1,AOI7,all,,18,33-33,Amy's,,Click on the boy that has all of Amy's knives,1,3_knives,girl,2_plates,3_spoons,2_forks,1_plate,1_fork,boy,boy,girl,,,,,,,,boy with knives,3339,kitchenwares,big,,1,7,,boy,,3_knives,26,[],23,Yes,,4,1,,Female,english,no,Safari,Mac,800,1280,6.1555333333333335,
6,condition1,Exp,,GirlAllAmyPlates,,,3,9,all,,AOI4,AOI10,all,,35,44-22,Amy's,,Click on the girl that has all of Amy's plates,1,3_spoons,girl,2_forks,3_knives,2_plates,1_spoon,1_knife,boy,boy,girl,,,,,,,,girl with the plate,4172,kitchenwares,small,,4,10,,girl,,2_plates,27,[],23,Yes,,4,1,,Female,english,no,Safari,Mac,800,1280,6.1555333333333335,
6,condition1,Exp,,BoySomeAmySpoons,,,1,7,some,,AOI2,AOI8,some,,33,44-22,Amy's,,Click on the boy that has some of Amy's spoons,1,2_plates,girl,3_spoons,2_forks,3_knives,1_spoon,1_knife,boy,boy,girl,,,,,,,,boy with the spoons,4701,kitchenwares,big,,2,8,,boy,,3_spoons,28,[],23,Yes,,4,1,,Female,english,no,Safari,Mac,800,1280,6.1555333333333335,
6,condition1,Exp,,BoyThreeAmyKnives,,,1,7,num,,AOI2,AOI8,three,,14,33-33,Amy's,,Click on the boy that has three of Amy's knives,1,2_spoons,girl,3_knives,2_plates,3_forks,1_spoon,1_plate,boy,boy,girl,,,,,,,,boy with the knives,3625,kitchenwares,big,,2,8,,boy,,3_knives,29,[],23,Yes,,4,1,,Female,english,no,Safari,Mac,800,1280,6.1555333333333335,
6,condition1,Filler,,BoyOneSusanApples,,,2,8,one,,AOI1,AOI7,one,,37,33-33,Susan's,,Click on the boy that has one of Susan's apples,1,1_apple,girl,3_pears,3_bananas,3_oranges,2_apples,0,boy,boy,girl,,,,,,,,boy with the apple,5098,fruit,small,,1,7,,boy,,1_apple,30,[],23,Yes,,4,1,,Female,english,no,Safari,Mac,800,1280,6.1555333333333335,
6,condition1,Exp,,GirlAllMichaelErasers,,,4,10,all,,AOI3,AOI9,all,,26,44-22,Michael's,,Click on the girl that has all of Michael's erasers,1,3_pencils,girl,2_scissors,2_erasers,3_rulers,1_pencil,1_ruler,boy,boy,girl,,,,,,,,girl with the rubbers,3540,stationeries,small,,3,9,,girl,,2_erasers,31,[],23,Yes,,4,1,,Female,english,no,Safari,Mac,800,1280,6.1555333333333335,
6,condition1,Exp,,BoySomeSusanPears,,,2,8,some,,AOI1,AOI7,some,,1,33-33,Susan's,,Click on the boy that has some of Susan's pears,1,2_pears,girl,3_bananas,2_apples,3_oranges,1_apple,1_pear,boy,boy,girl,,,,,,,,boy with the pears,4730,fruit,small,,1,7,,boy,,2_pears,32,[],23,Yes,,4,1,,Female,english,no,Safari,Mac,800,1280,6.1555333333333335,
6,condition1,Exp,,BoyAllSusanApples,,,2,8,all,,AOI1,AOI7,all,,22,44-22,Susan's,,Click on the boy that has all of Susan's apples,1,2_apples,girl,3_pears,3_oranges,2_bananas,1_orange,1_pear,boy,boy,girl,,,,,,,,boy with the apples,2934,fruit,small,,1,7,,boy,,2_apples,33,[],23,Yes,,4,1,,Female,english,no,Safari,Mac,800,1280,6.1555333333333335,
6,condition1,Filler,,GirlOneSusanPears,,,3,9,one,,AOI4,AOI10,one,,42,33-33,Susan's,,Click on the girl that has one of Susan's pears,1,3_bananas,girl,3_oranges,3_apples,1_pear,2_pears,0,boy,boy,girl,,,,,,,,girl with the pears,2981,fruit,small,,4,10,,girl,,1_pear,34,[],23,Yes,,4,1,,Female,english,no,Safari,Mac,800,1280,6.1555333333333335,
6,condition1,Filler,,BoyFourSusanBananas,,,1,7,four,,AOI2,AOI8,four,,44,44-22,Susan's,,Click on the boy that has four of Susan's bananas,1,1_orange,girl,4_bananas,3_pears,2_apples,1_orange,1_pear,boy,boy,girl,,,,,,,,boy with the bananas,14297,fruit,big,,2,8,,boy,,4_bananas,35,[],23,Yes,,4,1,,Female,english,no,Safari,Mac,800,1280,6.1555333333333335,
6,condition1,Exp,,GirlSomeAmyPlates,,,3,9,some,,AOI4,AOI10,some,,16,33-33,Amy's,,Click on the girl that has some of Amy's plates,1,2_forks,girl,3_knives,3_spoons,2_plates,1_fork,1_plate,boy,boy,girl,,,,,,,,girl with the plates,4864,kitchenwares,small,,4,10,,girl,,2_plates,36,[],23,Yes,,4,1,,Female,english,no,Safari,Mac,800,1280,6.1555333333333335,
6,condition1,Exp,,GirlThreeSusanPears,,,3,9,num,,AOI4,AOI10,three,,6,33-33,Susan's,,Click on the girl that has three of Susan's pears,1,2_oranges,girl,3_bananas,2_apples,3_pears,1_apple,1_orange,boy,boy,girl,,,,,,,,girl with the pears,3885,fruit,big,,4,10,,girl,,3_pears,37,[],23,Yes,,4,1,,Female,english,no,Safari,Mac,800,1280,6.1555333333333335,
6,condition1,Exp,,BoyAllSusanOranges,,,1,7,all,,AOI2,AOI8,all,,21,44-22,Susan's,,Click on the boy that has all of Susan's oranges,1,3_bananas,girl,2_oranges,3_apples,2_pears,1_apple,1_banana,boy,boy,girl,,,,,,,,boy with the oranges,10908,fruit,small,,2,8,,boy,,2_oranges,38,[],23,Yes,,4,1,,Female,english,no,Safari,Mac,800,1280,6.1555333333333335,
6,condition1,Filler,,GirlFourAmyPlates,,,3,9,four,,AOI4,AOI10,four,,47,44-22,Amy's,,Click on the girl that has four of Amy's plates,1,1_knife,girl,3_forks,2_spoons,4_plates,1_knife,1_fork,boy,boy,girl,,,,,,,,girl with the plates,5072,kitchenwares,big,,4,10,,girl,,4_plates,39,[],23,Yes,,4,1,,Female,english,no,Safari,Mac,800,1280,6.1555333333333335,
6,condition1,Exp,,BoySomeSusanOranges,,,1,7,some,,AOI2,AOI8,some,,2,33-33,Susan's,,Click on the boy that has some of Susan's oranges,1,3_apples,girl,2_oranges,2_bananas,3_pears,1_banana,1_orange,boy,boy,girl,,,,,,,,boy with the oranges,6005,fruit,small,,2,8,,boy,,2_oranges,40,[],23,Yes,,4,1,,Female,english,no,Safari,Mac,800,1280,6.1555333333333335,
6,condition1,Filler,,BoyOneMichaelRulers,,,1,7,one,,AOI2,AOI8,one,,40,33-33,Michael's,,Click on the boy that has one of Michael's rulers,1,3_erasers,girl,1_ruler,3_pencils,3_scissors,2_scissors,0,boy,boy,girl,,,,,,,,boy with the ruler,7014,stationeries,small,,2,8,,boy,,1_ruler,41,[],23,Yes,,4,1,,Female,english,no,Safari,Mac,800,1280,6.1555333333333335,
6,condition1,Exp,,BoySomeMichaelScissors,,,1,7,some,,AOI2,AOI8,some,,12,33-33,Michael's,,Click on the boy that has some of Michael's scissors,1,3_rulers,girl,2_scissors,2_pencils,3_erasers,1_pencil,1_scissor,boy,boy,girl,,,,,,,,boy with the scissor,4064,stationeries,small,,2,8,,boy,,2_scissors,42,[],23,Yes,,4,1,,Female,english,no,Safari,Mac,800,1280,6.1555333333333335,
6,condition1,Exp,,GirlSomeAmyKnives,,,4,10,some,,AOI3,AOI9,some,,15,33-33,Amy's,,Click on the girl that has some of Amy's knives,1,2_spoons,girl,3_plates,2_knives,3_forks,1_spoon,1_knife,boy,boy,girl,,,,,,,,girl with the knive,6751,kitchenwares,small,,3,9,,girl,,2_knives,43,[],23,Yes,,4,1,,Female,english,no,Safari,Mac,800,1280,6.1555333333333335,
6,condition1,Filler,,BoyOneAmyPlates,,,2,8,one,,AOI1,AOI7,one,,38,33-33,Amy's,,Click on the boy that has one of Amy's plates,1,1_plate,girl,3_knives,3_forks,3_spoons,2_plates,0,boy,boy,girl,,,,,,,,boy with the plate,3869,kitchenwares,small,,1,7,,boy,,1_plate,44,[],23,Yes,,4,1,,Female,english,no,Safari,Mac,800,1280,6.1555333333333335,
6,condition1,Exp,,BoySomeMichaelPencils,,,2,8,some,,AOI1,AOI7,some,,29,44-22,Michael's,,Click on the boy that has some of Michael's pencils,1,3_pencils,girl,2_erasers,3_scissors,2_rulers,1_pencil,1_scissor,boy,boy,girl,,,,,,,,boy with the pencils,3347,stationeries,big,,1,7,,boy,,3_pencils,45,[],23,Yes,,4,1,,Female,english,no,Safari,Mac,800,1280,6.1555333333333335,
6,condition1,Exp,,BoySomeMichaelErasers,,,2,8,some,,AOI1,AOI7,some,,11,33-33,Michael's,,Click on the boy that has some of Michael's erasers,1,2_erasers,girl,3_pencils,2_rulers,3_scissors,1_ruler,1_eraser,boy,boy,girl,,,,,,,,boy with the rubbers,3635,stationeries,small,,1,7,,boy,,2_erasers,46,[],23,Yes,,4,1,,Female,english,no,Safari,Mac,800,1280,6.1555333333333335,
6,condition1,Exp,,GirlTwoMichaelRulers,,,4,10,num,,AOI3,AOI9,two,,9,33-33,Michael's,,Click on the girl that has two of Michael's rulers,1,3_pencils,girl,2_scissors,2_rulers,3_erasers,1_ruler,1_scissor,boy,boy,girl,,,,,,,,girl with the rulers,3564,stationeries,small,,3,9,,girl,,2_rulers,47,[],23,Yes,,4,1,,Female,english,no,Safari,Mac,800,1280,6.1555333333333335,
6,condition1,Exp,,BoyAllAmyForks,,,1,7,all,,AOI2,AOI8,all,,17,33-33,Amy's,,Click on the boy that has all of Amy's forks,1,2_spoons,girl,3_forks,2_knives,3_plates,1_spoon,1_knife,boy,boy,girl,,,,,,,,boy with the forks,2538,kitchenwares,big,,2,8,,boy,,3_forks,48,[],23,Yes,,4,1,,Female,english,no,Safari,Mac,800,1280,6.1555333333333335,
7,condition1,Prac,Fruit_Susan_Monday,,Fruit_residue,1,2,,,two,AOI1,AOI7,,two,1,33-33,Susan,Click on the boy that has two of Susan's apples,,,2_apples,girl,3_bananas,2_pears,3_oranges,1_apple,1_pear,boy,boy,girl,apples,D3_pears,D3_bananas,D3_oranges,clicking practice,,BoyTwoSusanapples,"['AOI7', 'AOI8', 'AOI7', 'AOI7']",,fruit,,small,1,,boy,,2_apples,,,[],18,Yes,,2,1,not quite - lots of rounds,Male,English,no,Chrome,Linux,768,1366,13.75615,
7,condition1,Prac,Fruit_Susan_Tuesday,,Slience,2,1,,,some,AOI3,AOI9,,some,2,44-22,Susan,Click on the girl that has some of Susan's apples,,,3_bananas,girl,2_pears,3_apples,2_oranges,1_apple,1_banana,boy,boy,girl,apples,D2_pears,D4_bananas,D2_oranges,clicking practice,,GirlSomeSusanapples,"['AOI9', 'AOI9', 'AOI9', 'AOI9']",,fruit,,small,3,,girl,,3_apples,,,[],18,Yes,,2,1,not quite - lots of rounds,Male,English,no,Chrome,Linux,768,1366,13.75615,
7,condition1,Prac,Stationary_Michael_Monday,,Residue_stationary,3,4,,,num,AOI1,AOI7,,three,3,33-33,Michael,Click on the boy that has three of Michael's scissors,,,3_scissors,girl,2_pencils,3_erasers,2_rulers,1_pencil,1_ruler,boy,boy,girl,erasers,D3_pencils,D3_erasers,D3_rulers,clicking practice,,BoyThreeMichaelscissors,"['AOI8', 'AOI8', 'AOI7', 'AOI7']",,office supplies,,big,1,,boy,,3_scissors,,,[],18,Yes,,2,1,not quite - lots of rounds,Male,English,no,Chrome,Linux,768,1366,13.75615,
7,condition1,Prac,Stationary_Michael_Tuesday,,Residue_stationary,4,3,,,all,AOI4,AOI10,,all,4,44-22,Michael,Click on the girl that has all of Michael's rulers,,,3_pencils,girl,2_scissors,3_erasers,2_rulers,1_pencil,1_eraser,boy,boy,girl,rulers,D4_pencils,D4_erasers,D2_rulers,clicking practice,,GirlAllMichaelrulers,"['AOI7', 'AOI9', 'AOI10', 'AOI10']",,office supplies,,small,4,,girl,,2_rulers,,,[],18,Yes,,2,1,not quite - lots of rounds,Male,English,no,Chrome,Linux,768,1366,13.75615,
7,condition1,Prac,kitchware_Amy_Monday,,Residue_kitchen,,4,,,num,AOI3,AOI9,,three,5,44-22,Amy,Click on the girl that has three of Amy's knives,,,2_spoons,girl,3_forks,3_knives,2_plates,1_fork,1_knife,boy,boy,girl,knives,D4_forks,D2_spoons,D4_knives,production practice,1,GirlThreeAmyknives,girl with three knives,,kitchenwares,,big,3,,girl,,3_knives,,,[],18,Yes,,2,1,not quite - lots of rounds,Male,English,no,Chrome,Linux,768,1366,13.75615,
7,condition1,Prac,kitchware_Amy_Tuesday,,Slience,,2,,,some,AOI4,AOI10,,some,6,33-33,Amy,Click on the girl that has some of Amy's forks,,,3_spoons,girl,2_knives,3_plates,2_forks,1_fork,1_knife,boy,boy,girl,forks,D3_forks,D3_spoons,D3_knives,production practice,2,GirlSomeAmyforks,girl with two of Amy's forks,,kitchenwares,,big,4,,girl,,2_forks,,,[],18,Yes,,2,1,not quite - lots of rounds,Male,English,no,Chrome,Linux,768,1366,13.75615,
7,condition1,Exp,,BoyAllAmyForks,,,1,7,all,,AOI2,AOI8,all,,17,33-33,Amy's,,Click on the boy that has all of Amy's forks,1,2_spoons,girl,3_forks,2_knives,3_plates,1_spoon,1_knife,boy,boy,girl,,,,,,,,boy with all of Amy's forks,14530,kitchenwares,big,,2,8,,boy,,3_forks,1,[],18,Yes,,2,1,not quite - lots of rounds,Male,English,no,Chrome,Linux,768,1366,13.75615,
7,condition1,Exp,,BoyThreeAmyKnives,,,1,7,num,,AOI2,AOI8,three,,14,33-33,Amy's,,Click on the boy that has three of Amy's knives,1,2_spoons,girl,3_knives,2_plates,3_forks,1_spoon,1_plate,boy,boy,girl,,,,,,,,Click on the boy with all of Amy's knives,21340,kitchenwares,big,,2,8,,boy,,3_knives,2,[],18,Yes,,2,1,not quite - lots of rounds,Male,English,no,Chrome,Linux,768,1366,13.75615,
7,condition1,Exp,,GirlSomeSusanApples,,,4,10,some,,AOI3,AOI9,some,,20,44-22,Susan's,,Click on the girl that has some of Susan's apples,1,3_pears,girl,2_bananas,3_apples,2_oranges,1_apple,1_pear,boy,boy,girl,,,,,,,,Click on the girl with three apples,17560,fruit,big,,3,9,,girl,,3_apples,3,[],18,Yes,,2,1,not quite - lots of rounds,Male,English,no,Chrome,Linux,768,1366,13.75615,
7,condition1,Exp,,GirlAllSusanBananas,,,4,10,all,,AOI3,AOI9,all,,4,33-33,Susan's,,Click on the girl that has all of Susan's bananas,1,2_pears,girl,3_apples,3_bananas,2_oranges,1_orange,1_pear,boy,boy,girl,,,,,,,,click on the girl with all the bananas,13776,fruit,big,,3,9,,girl,,3_bananas,4,[],18,Yes,,2,1,not quite - lots of rounds,Male,English,no,Chrome,Linux,768,1366,13.75615,
7,condition1,Filler,,BoyFourSusanBananas,,,1,7,four,,AOI2,AOI8,four,,44,44-22,Susan's,,Click on the boy that has four of Susan's bananas,1,1_orange,girl,4_bananas,3_pears,2_apples,1_orange,1_pear,boy,boy,girl,,,,,,,,click on the boy with all the bananas,16577,fruit,big,,2,8,,boy,,4_bananas,5,[],18,Yes,,2,1,not quite - lots of rounds,Male,English,no,Chrome,Linux,768,1366,13.75615,
7,condition1,Filler,,BoyOneMichaelRulers,,,1,7,one,,AOI2,AOI8,one,,40,33-33,Michael's,,Click on the boy that has one of Michael's rulers,1,3_erasers,girl,1_ruler,3_pencils,3_scissors,2_scissors,0,boy,boy,girl,,,,,,,,click on the boy with one ruler,11446,stationeries,small,,2,8,,boy,,1_ruler,6,[],18,Yes,,2,1,not quite - lots of rounds,Male,English,no,Chrome,Linux,768,1366,13.75615,
7,condition1,Exp,,GirlAllMichaelErasers,,,4,10,all,,AOI3,AOI9,all,,26,44-22,Michael's,,Click on the girl that has all of Michael's erasers,1,3_pencils,girl,2_scissors,2_erasers,3_rulers,1_pencil,1_ruler,boy,boy,girl,,,,,,,,click on the girl with all the rubbers,12295,stationeries,small,,3,9,,girl,,2_erasers,7,[],18,Yes,,2,1,not quite - lots of rounds,Male,English,no,Chrome,Linux,768,1366,13.75615,
7,condition1,Exp,,BoyAllSusanApples,,,2,8,all,,AOI1,AOI7,all,,22,44-22,Susan's,,Click on the boy that has all of Susan's apples,1,2_apples,girl,3_pears,3_oranges,2_bananas,1_orange,1_pear,boy,boy,girl,,,,,,,,click on the boy with all the apples,10203,fruit,small,,1,7,,boy,,2_apples,8,[],18,Yes,,2,1,not quite - lots of rounds,Male,English,no,Chrome,Linux,768,1366,13.75615,
7,condition1,Exp,,GirlAllAmyPlates,,,3,9,all,,AOI4,AOI10,all,,35,44-22,Amy's,,Click on the girl that has all of Amy's plates,1,3_spoons,girl,2_forks,3_knives,2_plates,1_spoon,1_knife,boy,boy,girl,,,,,,,,click on the girl with all the plates,9599,kitchenwares,small,,4,10,,girl,,2_plates,9,[],18,Yes,,2,1,not quite - lots of rounds,Male,English,no,Chrome,Linux,768,1366,13.75615,
7,condition1,Exp,,BoySomeAmySpoons,,,1,7,some,,AOI2,AOI8,some,,33,44-22,Amy's,,Click on the boy that has some of Amy's spoons,1,2_plates,girl,3_spoons,2_forks,3_knives,1_spoon,1_knife,boy,boy,girl,,,,,,,,click on the boy with three spoons,11597,kitchenwares,big,,2,8,,boy,,3_spoons,10,[],18,Yes,,2,1,not quite - lots of rounds,Male,English,no,Chrome,Linux,768,1366,13.75615,
7,condition1,Exp,,BoySomeMichaelPencils,,,2,8,some,,AOI1,AOI7,some,,29,44-22,Michael's,,Click on the boy that has some of Michael's pencils,1,3_pencils,girl,2_erasers,3_scissors,2_rulers,1_pencil,1_scissor,boy,boy,girl,,,,,,,,click on the boy with three pencils,10523,stationeries,big,,1,7,,boy,,3_pencils,11,[],18,Yes,,2,1,not quite - lots of rounds,Male,English,no,Chrome,Linux,768,1366,13.75615,
7,condition1,Exp,,BoyTwoSusanApples,,,2,8,num,,AOI1,AOI7,two,,24,44-22,Susan's,,Click on the boy that has two of Susan's apples,1,2_apples,girl,3_pears,3_bananas,2_oranges,1_banana,1_pear,boy,boy,girl,,,,,,,,click on the boy with two apples,8636,fruit,small,,1,7,,boy,,2_apples,12,[],18,Yes,,2,1,not quite - lots of rounds,Male,English,no,Chrome,Linux,768,1366,13.75615,
7,condition1,Exp,,GirlTwoAmyForks,,,3,9,num,,AOI4,AOI10,two,,13,33-33,Amy's,,Click on the girl that has two of Amy's forks,1,2_knives,girl,3_spoons,3_plates,2_forks,1_fork,1_knife,boy,boy,girl,,,,,,,,click on the girl with two forks,9125,kitchenwares,small,,4,10,,girl,,2_forks,13,[],18,Yes,,2,1,not quite - lots of rounds,Male,English,no,Chrome,Linux,768,1366,13.75615,
7,condition1,Exp,,BoySomeSusanOranges,,,1,7,some,,AOI2,AOI8,some,,2,33-33,Susan's,,Click on the boy that has some of Susan's oranges,1,3_apples,girl,2_oranges,2_bananas,3_pears,1_banana,1_orange,boy,boy,girl,,,,,,,,click on the boy with two oranges,8477,fruit,small,,2,8,,boy,,2_oranges,14,[],18,Yes,,2,1,not quite - lots of rounds,Male,English,no,Chrome,Linux,768,1366,13.75615,
7,condition1,Exp,,GirlSomeAmyPlates,,,3,9,some,,AOI4,AOI10,some,,16,33-33,Amy's,,Click on the girl that has some of Amy's plates,1,2_forks,girl,3_knives,3_spoons,2_plates,1_fork,1_plate,boy,boy,girl,,,,,,,,click on the girl with two plates,9996,kitchenwares,small,,4,10,,girl,,2_plates,15,[],18,Yes,,2,1,not quite - lots of rounds,Male,English,no,Chrome,Linux,768,1366,13.75615,
7,condition1,Exp,,BoySomeMichaelScissors,,,1,7,some,,AOI2,AOI8,some,,12,33-33,Michael's,,Click on the boy that has some of Michael's scissors,1,3_rulers,girl,2_scissors,2_pencils,3_erasers,1_pencil,1_scissor,boy,boy,girl,,,,,,,,click on the boy with two pairs of scissors,20049,stationeries,small,,2,8,,boy,,2_scissors,16,[],18,Yes,,2,1,not quite - lots of rounds,Male,English,no,Chrome,Linux,768,1366,13.75615,
7,condition1,Exp,,BoyAllAmyKnives,,,2,8,all,,AOI1,AOI7,all,,18,33-33,Amy's,,Click on the boy that has all of Amy's knives,1,3_knives,girl,2_plates,3_spoons,2_forks,1_plate,1_fork,boy,boy,girl,,,,,,,,click on he boy with all the knives,10973,kitchenwares,big,,1,7,,boy,,3_knives,17,[],18,Yes,,2,1,not quite - lots of rounds,Male,English,no,Chrome,Linux,768,1366,13.75615,
7,condition1,Filler,,GirlOneMichaelErasers,,,4,10,one,,AOI3,AOI9,one,,41,33-33,Michael's,,Click on the girl that has one of Michael's erasers,1,3_pencils,girl,3_scissors,1_eraser,3_rulers,2_erasers,0,boy,boy,girl,,,,,,,,click on the girl with one rubber,15255,stationeries,small,,3,9,,girl,,1_eraser,18,[],18,Yes,,2,1,not quite - lots of rounds,Male,English,no,Chrome,Linux,768,1366,13.75615,
7,condition1,Exp,,BoyTwoAmySpoons,,,2,8,num,,AOI1,AOI7,two,,32,44-22,Amy's,,Click on the boy that has two of Amy's spoons,1,2_spoons,girl,3_knives,3_forks,2_plates,1_fork,1_knife,boy,boy,girl,,,,,,,,click on the boy with two spoons,10335,kitchenwares,small,,1,7,,boy,,2_spoons,19,[],18,Yes,,2,1,not quite - lots of rounds,Male,English,no,Chrome,Linux,768,1366,13.75615,
7,condition1,Filler,,GirlFourMichaelPencils,,,3,9,four,,AOI4,AOI10,four,,48,44-22,Michael's,,Click on the girl that has four of Michael's pencils,1,1_ruler,girl,2_erasers,3_scissors,4_pencils,1_ruler,1_scissor,boy,boy,girl,,,,,,,,click on the girl with 4 pencils,11566,stationeries,big,,4,10,,girl,,4_pencils,20,[],18,Yes,,2,1,not quite - lots of rounds,Male,English,no,Chrome,Linux,768,1366,13.75615,
7,condition1,Exp,,BoyThreeAmyPlates,,,2,8,num,,AOI1,AOI7,three,,31,44-22,Amy's,,Click on the boy that has three of Amy's plates,1,3_plates,girl,2_forks,3_spoons,2_knives,1_spoon,1_plate,boy,boy,girl,,,,,,,,click on the boy with 3 plates,10666,kitchenwares,big,,1,7,,boy,,3_plates,21,[],18,Yes,,2,1,not quite - lots of rounds,Male,English,no,Chrome,Linux,768,1366,13.75615,
7,condition1,Filler,,BoyFourMichaelScissors,,,2,8,four,,AOI1,AOI7,four,,43,44-22,Michael's,,Click on the boy that has four of Michael's scissors,1,4_scissors,girl,1_pencil,2_rulers,3_erasers,1_pencil,1_eraser,boy,boy,girl,,,,,,,,click on the boy with all the scissors,10512,stationeries,big,,1,7,,boy,,4_scissors,22,[],18,Yes,,2,1,not quite - lots of rounds,Male,English,no,Chrome,Linux,768,1366,13.75615,
7,condition1,Exp,,BoyAllSusanOranges,,,1,7,all,,AOI2,AOI8,all,,21,44-22,Susan's,,Click on the boy that has all of Susan's oranges,1,3_bananas,girl,2_oranges,3_apples,2_pears,1_apple,1_banana,boy,boy,girl,,,,,,,,click on the boy with all the oranges,14177,fruit,small,,2,8,,boy,,2_oranges,23,[],18,Yes,,2,1,not quite - lots of rounds,Male,English,no,Chrome,Linux,768,1366,13.75615,
7,condition1,Exp,,BoySomeMichaelErasers,,,2,8,some,,AOI1,AOI7,some,,11,33-33,Michael's,,Click on the boy that has some of Michael's erasers,1,2_erasers,girl,3_pencils,2_rulers,3_scissors,1_ruler,1_eraser,boy,boy,girl,,,,,,,,click on the boy with two rubbers,12313,stationeries,small,,1,7,,boy,,2_erasers,24,[],18,Yes,,2,1,not quite - lots of rounds,Male,English,no,Chrome,Linux,768,1366,13.75615,
7,condition1,Exp,,GirlSomeAmyKnives,,,4,10,some,,AOI3,AOI9,some,,15,33-33,Amy's,,Click on the girl that has some of Amy's knives,1,2_spoons,girl,3_plates,2_knives,3_forks,1_spoon,1_knife,boy,boy,girl,,,,,,,,click on the girl with two knives,12946,kitchenwares,small,,3,9,,girl,,2_knives,25,[],18,Yes,,2,1,not quite - lots of rounds,Male,English,no,Chrome,Linux,768,1366,13.75615,
7,condition1,Filler,,BoyOneSusanApples,,,2,8,one,,AOI1,AOI7,one,,37,33-33,Susan's,,Click on the boy that has one of Susan's apples,1,1_apple,girl,3_pears,3_bananas,3_oranges,2_apples,0,boy,boy,girl,,,,,,,,click on the boy with one apple,11547,fruit,small,,1,7,,boy,,1_apple,26,[],18,Yes,,2,1,not quite - lots of rounds,Male,English,no,Chrome,Linux,768,1366,13.75615,
7,condition1,Exp,,BoyTwoMichaelPencils,,,1,7,num,,AOI2,AOI8,two,,28,44-22,Michael's,,Click on the boy that has two of Michael's pencils,1,3_scissors,girl,2_pencils,2_erasers,3_rulers,1_ruler,1_scissor,boy,boy,girl,,,,,,,,click on the boy with 2 pencils,12377,stationeries,small,,2,8,,boy,,2_pencils,27,[],18,Yes,,2,1,not quite - lots of rounds,Male,English,no,Chrome,Linux,768,1366,13.75615,
7,condition1,Filler,,GirlOneSusanPears,,,3,9,one,,AOI4,AOI10,one,,42,33-33,Susan's,,Click on the girl that has one of Susan's pears,1,3_bananas,girl,3_oranges,3_apples,1_pear,2_pears,0,boy,boy,girl,,,,,,,,click on the girl with a pear,9705,fruit,small,,4,10,,girl,,1_pear,28,[],18,Yes,,2,1,not quite - lots of rounds,Male,English,no,Chrome,Linux,768,1366,13.75615,
7,condition1,Exp,,GirlAllAmySpoons,,,4,10,all,,AOI3,AOI9,all,,36,44-22,Amy's,,Click on the girl that has all of Amy's spoons,1,3_plates,girl,2_knives,2_spoons,3_forks,1_plate,1_fork,boy,boy,girl,,,,,,,,click on the girl with 2 spoons,9992,kitchenwares,small,,3,9,,girl,,2_spoons,29,[],18,Yes,,2,1,not quite - lots of rounds,Male,English,no,Chrome,Linux,768,1366,13.75615,
7,condition1,Exp,,GirlSomeAmyForks,,,4,10,some,,AOI3,AOI9,some,,34,44-22,Amy's,,Click on the girl that has some of Amy's forks,1,2_spoons,girl,3_plates,3_forks,2_knives,1_fork,1_plate,boy,boy,girl,,,,,,,,click on the girl with 3 forks,8298,kitchenwares,big,,3,9,,girl,,3_forks,30,[],18,Yes,,2,1,not quite - lots of rounds,Male,English,no,Chrome,Linux,768,1366,13.75615,
7,condition1,Exp,,BoyAllMichaelScissors,,,2,8,all,,AOI1,AOI7,all,,7,33-33,Michael's,,Click on the boy that has all of Michael's scissors,1,3_scissors,girl,2_pencils,3_erasers,2_rulers,1_pencil,1_ruler,boy,boy,girl,,,,,,,, click on the boy with three scissors,36934,stationeries,big,,1,7,,boy,,3_scissors,31,[],18,Yes,,2,1,not quite - lots of rounds,Male,English,no,Chrome,Linux,768,1366,13.75615,
7,condition1,Filler,,BoyOneAmySpoons,,,1,7,one,,AOI2,AOI8,one,,39,33-33,Amy's,,Click on the boy that has one of Amy's spoons,1,3_forks,girl,1_spoon,3_plates,3_knives,2_spoons,0,boy,boy,girl,,,,,,,, click on the boy with a spoon,7620,kitchenwares,small,,2,8,,boy,,1_spoon,32,[],18,Yes,,2,1,not quite - lots of rounds,Male,English,no,Chrome,Linux,768,1366,13.75615,
7,condition1,Filler,,GirlFourSusanOranges,,,4,10,four,,AOI3,AOI9,four,,45,44-22,Susan's,,Click on the girl that has four of Susan's oranges,1,2_pears,girl,3_apples,4_oranges,1_banana,1_banana,1_apple,boy,boy,girl,,,,,,,, click on the girl with all the oranges,9164,fruit,big,,3,9,,girl,,4_oranges,33,[],18,Yes,,2,1,not quite - lots of rounds,Male,English,no,Chrome,Linux,768,1366,13.75615,
7,condition1,Filler,,BoyOneAmyPlates,,,2,8,one,,AOI1,AOI7,one,,38,33-33,Amy's,,Click on the boy that has one of Amy's plates,1,1_plate,girl,3_knives,3_forks,3_spoons,2_plates,0,boy,boy,girl,,,,,,,, click on the boy with a plate,11012,kitchenwares,small,,1,7,,boy,,1_plate,34,[],18,Yes,,2,1,not quite - lots of rounds,Male,English,no,Chrome,Linux,768,1366,13.75615,
7,condition1,Exp,,GirlTwoMichaelRulers,,,4,10,num,,AOI3,AOI9,two,,9,33-33,Michael's,,Click on the girl that has two of Michael's rulers,1,3_pencils,girl,2_scissors,2_rulers,3_erasers,1_ruler,1_scissor,boy,boy,girl,,,,,,,, click on the girl with 2 rulers,10818,stationeries,small,,3,9,,girl,,2_rulers,35,[],18,Yes,,2,1,not quite - lots of rounds,Male,English,no,Chrome,Linux,768,1366,13.75615,
7,condition1,Exp,,BoySomeSusanPears,,,2,8,some,,AOI1,AOI7,some,,1,33-33,Susan's,,Click on the boy that has some of Susan's pears,1,2_pears,girl,3_bananas,2_apples,3_oranges,1_apple,1_pear,boy,boy,girl,,,,,,,, click on the boy with 2 pears,8898,fruit,small,,1,7,,boy,,2_pears,36,[],18,Yes,,2,1,not quite - lots of rounds,Male,English,no,Chrome,Linux,768,1366,13.75615,
7,condition1,Filler,,GirlFourAmyKnives,,,4,10,four,,AOI3,AOI9,four,,46,44-22,Amy's,,Click on the girl that has four of Amy's knives,1,1_spoon,girl,3_plates,4_knives,2_forks,1_spoon,1_plate,boy,boy,girl,,,,,,,, click on the girl with all the knives,11153,kitchenwares,big,,3,9,,girl,,4_knives,37,[],18,Yes,,2,1,not quite - lots of rounds,Male,English,no,Chrome,Linux,768,1366,13.75615,
7,condition1,Exp,,GirlThreeSusanOranges,,,4,10,num,,AOI3,AOI9,three,,23,44-22,Susan's,,Click on the girl that has three of Susan's oranges,1,3_apples,girl,2_pears,3_oranges,2_bananas,1_apple,1_orange,boy,boy,girl,,,,,,,, click on the girl with 3 oranges,7657,fruit,big,,3,9,,girl,,3_oranges,38,[],18,Yes,,2,1,not quite - lots of rounds,Male,English,no,Chrome,Linux,768,1366,13.75615,
7,condition1,Exp,,GirlThreeSusanPears,,,3,9,num,,AOI4,AOI10,three,,6,33-33,Susan's,,Click on the girl that has three of Susan's pears,1,2_oranges,girl,3_bananas,2_apples,3_pears,1_apple,1_orange,boy,boy,girl,,,,,,,, click on the girl with 3 pears,11421,fruit,big,,4,10,,girl,,3_pears,39,[],18,Yes,,2,1,not quite - lots of rounds,Male,English,no,Chrome,Linux,768,1366,13.75615,
7,condition1,Exp,,GirlThreeMichaelScissors,,,4,10,num,,AOI3,AOI9,three,,10,33-33,Michael's,,Click on the girl that has three of Michael's scissors,1,3_rulers,girl,2_erasers,3_scissors,2_pencils,1_pencil,1_eraser,boy,boy,girl,,,,,,,, click on the girl with three scissors,8530,stationeries,big,,3,9,,girl,,3_scissors,40,[],18,Yes,,2,1,not quite - lots of rounds,Male,English,no,Chrome,Linux,768,1366,13.75615,
7,condition1,Exp,,BoyThreeMichaelErasers,,,1,7,num,,AOI2,AOI8,three,,27,44-22,Michael's,,Click on the boy that has three of Michael's erasers,1,2_rulers,girl,3_erasers,2_scissors,3_pencils,1_pencil,1_eraser,boy,boy,girl,,,,,,,, click on the boy with three rubbers,9185,stationeries,big,,2,8,,boy,,3_erasers,41,[],18,Yes,,2,1,not quite - lots of rounds,Male,English,no,Chrome,Linux,768,1366,13.75615,
7,condition1,Exp,,GirlSomeSusanBananas,,,3,9,some,,AOI4,AOI10,some,,19,44-22,Susan's,,Click on the girl that has some of Susan's bananas,1,3_oranges,girl,2_apples,2_pears,3_bananas,1_banana,1_orange,boy,boy,girl,,,,,,,, click on the girl with three bananas,7793,fruit,big,,4,10,,girl,,3_bananas,42,[],18,Yes,,2,1,not quite - lots of rounds,Male,English,no,Chrome,Linux,768,1366,13.75615,
7,condition1,Filler,,GirlFourAmyPlates,,,3,9,four,,AOI4,AOI10,four,,47,44-22,Amy's,,Click on the girl that has four of Amy's plates,1,1_knife,girl,3_forks,2_spoons,4_plates,1_knife,1_fork,boy,boy,girl,,,,,,,, click on the girl with all the plates,9999,kitchenwares,big,,4,10,,girl,,4_plates,43,[],18,Yes,,2,1,not quite - lots of rounds,Male,English,no,Chrome,Linux,768,1366,13.75615,
7,condition1,Exp,,BoyAllSusanPears,,,1,7,all,,AOI2,AOI8,all,,3,33-33,Susan's,,Click on the boy that has all of Susan's pears,1,2_apples,girl,3_pears,2_bananas,3_oranges,1_apple,1_banana,boy,boy,girl,,,,,,,, click on the boy with all the pears,8884,fruit,big,,2,8,,boy,,3_pears,44,[],18,Yes,,2,1,not quite - lots of rounds,Male,English,no,Chrome,Linux,768,1366,13.75615,
7,condition1,Exp,,GirlAllMichaelPencils,,,3,9,all,,AOI4,AOI10,all,,25,44-22,Michael's,,Click on the girl that has all of Michael's pencils,1,3_erasers,girl,2_rulers,3_scissors,2_pencils,1_eraser,1_scissor,boy,boy,girl,,,,,,,, click on the girl with 2 pencils,6551,stationeries,small,,4,10,,girl,,2_pencils,45,[],18,Yes,,2,1,not quite - lots of rounds,Male,English,no,Chrome,Linux,768,1366,13.75615,
7,condition1,Exp,,GirlAllMichaelRulers,,,3,9,all,,AOI4,AOI10,all,,8,33-33,Michael's,,Click on the girl that has all of Michael's rulers,1,2_scissors,girl,3_pencils,2_erasers,3_rulers,1_eraser,1_scissor,boy,boy,girl,,,,,,,, click on the girl with all the rulers,9371,stationeries,big,,4,10,,girl,,3_rulers,46,[],18,Yes,,2,1,not quite - lots of rounds,Male,English,no,Chrome,Linux,768,1366,13.75615,
7,condition1,Exp,,GirlSomeMichaelRulers,,,3,9,some,,AOI4,AOI10,some,,30,44-22,Michael's,,Click on the girl that has some of Michael's rulers,1,3_erasers,girl,2_pencils,2_scissors,3_rulers,1_ruler,1_eraser,boy,boy,girl,,,,,,,, click on the girl with 3 rulers,7526,stationeries,big,,4,10,,girl,,3_rulers,47,[],18,Yes,,2,1,not quite - lots of rounds,Male,English,no,Chrome,Linux,768,1366,13.75615,
7,condition1,Exp,,GirlTwoSusanBananas,,,3,9,num,,AOI4,AOI10,two,,5,33-33,Susan's,,Click on the girl that has two of Susan's bananas,1,2_pears,girl,3_apples,3_oranges,2_bananas,1_banana,1_pear,boy,boy,girl,,,,,,,, click on the girl with 2 bananas,12816,fruit,small,,4,10,,girl,,2_bananas,48,[],18,Yes,,2,1,not quite - lots of rounds,Male,English,no,Chrome,Linux,768,1366,13.75615,
8,condition1,Prac,Fruit_Susan_Monday,,Fruit_residue,1,2,,,two,AOI1,AOI7,,two,1,33-33,Susan,Click on the boy that has two of Susan's apples,,,2_apples,girl,3_bananas,2_pears,3_oranges,1_apple,1_pear,boy,boy,girl,apples,D3_pears,D3_bananas,D3_oranges,clicking practice,,BoyTwoSusanapples,"['AOI7', 'AOI7', 'AOI7', 'AOI7']",,fruit,,small,1,,boy,,2_apples,,,[],19,Yes,,1,2,1.50,Other,English,no,Chrome,Windows,720,1280,11.829916666666668,
8,condition1,Prac,Fruit_Susan_Tuesday,,Slience,2,1,,,some,AOI3,AOI9,,some,2,44-22,Susan,Click on the girl that has some of Susan's apples,,,3_bananas,girl,2_pears,3_apples,2_oranges,1_apple,1_banana,boy,boy,girl,apples,D2_pears,D4_bananas,D2_oranges,clicking practice,,GirlSomeSusanapples,"['AOI9', 'AOI9', 'AOI10', 'AOI9']",,fruit,,small,3,,girl,,3_apples,,,[],19,Yes,,1,2,1.50,Other,English,no,Chrome,Windows,720,1280,11.829916666666668,
8,condition1,Prac,Stationary_Michael_Monday,,Residue_stationary,3,4,,,num,AOI1,AOI7,,three,3,33-33,Michael,Click on the boy that has three of Michael's scissors,,,3_scissors,girl,2_pencils,3_erasers,2_rulers,1_pencil,1_ruler,boy,boy,girl,erasers,D3_pencils,D3_erasers,D3_rulers,clicking practice,,BoyThreeMichaelscissors,"['AOI10', 'AOI8', 'AOI7', 'AOI7']",,office supplies,,big,1,,boy,,3_scissors,,,[],19,Yes,,1,2,1.50,Other,English,no,Chrome,Windows,720,1280,11.829916666666668,
8,condition1,Prac,Stationary_Michael_Tuesday,,Residue_stationary,4,3,,,all,AOI4,AOI10,,all,4,44-22,Michael,Click on the girl that has all of Michael's rulers,,,3_pencils,girl,2_scissors,3_erasers,2_rulers,1_pencil,1_eraser,boy,boy,girl,rulers,D4_pencils,D4_erasers,D2_rulers,clicking practice,,GirlAllMichaelrulers,"['AOI9', 'AOI9', 'AOI10', 'AOI10']",,office supplies,,small,4,,girl,,2_rulers,,,[],19,Yes,,1,2,1.50,Other,English,no,Chrome,Windows,720,1280,11.829916666666668,
8,condition1,Prac,kitchware_Amy_Monday,,Residue_kitchen,,4,,,num,AOI3,AOI9,,three,5,44-22,Amy,Click on the girl that has three of Amy's knives,,,2_spoons,girl,3_forks,3_knives,2_plates,1_fork,1_knife,boy,boy,girl,knives,D4_forks,D2_spoons,D4_knives,production practice,1,GirlThreeAmyknives,girl with three knives,,kitchenwares,,big,3,,girl,,3_knives,,,[],19,Yes,,1,2,1.50,Other,English,no,Chrome,Windows,720,1280,11.829916666666668,
8,condition1,Prac,kitchware_Amy_Tuesday,,Slience,,2,,,some,AOI4,AOI10,,some,6,33-33,Amy,Click on the girl that has some of Amy's forks,,,3_spoons,girl,2_knives,3_plates,2_forks,1_fork,1_knife,boy,boy,girl,forks,D3_forks,D3_spoons,D3_knives,production practice,2,GirlSomeAmyforks,girl with some forks,,kitchenwares,,big,4,,girl,,2_forks,,,[],19,Yes,,1,2,1.50,Other,English,no,Chrome,Windows,720,1280,11.829916666666668,
8,condition1,Exp,,GirlAllMichaelPencils,,,3,9,all,,AOI4,AOI10,all,,25,44-22,Michael's,,Click on the girl that has all of Michael's pencils,1,3_erasers,girl,2_rulers,3_scissors,2_pencils,1_eraser,1_scissor,boy,boy,girl,,,,,,,,girl with two pencils,11817,stationeries,small,,4,10,,girl,,2_pencils,1,[],19,Yes,,1,2,1.50,Other,English,no,Chrome,Windows,720,1280,11.829916666666668,
8,condition1,Filler,,GirlFourMichaelPencils,,,3,9,four,,AOI4,AOI10,four,,48,44-22,Michael's,,Click on the girl that has four of Michael's pencils,1,1_ruler,girl,2_erasers,3_scissors,4_pencils,1_ruler,1_scissor,boy,boy,girl,,,,,,,,girl with all of the pencils,13543,stationeries,big,,4,10,,girl,,4_pencils,2,[],19,Yes,,1,2,1.50,Other,English,no,Chrome,Windows,720,1280,11.829916666666668,
8,condition1,Exp,,BoyAllMichaelScissors,,,2,8,all,,AOI1,AOI7,all,,7,33-33,Michael's,,Click on the boy that has all of Michael's scissors,1,3_scissors,girl,2_pencils,3_erasers,2_rulers,1_pencil,1_ruler,boy,boy,girl,,,,,,,,boy with all of the scissors,12530,stationeries,big,,1,7,,boy,,3_scissors,3,[],19,Yes,,1,2,1.50,Other,English,no,Chrome,Windows,720,1280,11.829916666666668,
8,condition1,Exp,,BoySomeMichaelScissors,,,1,7,some,,AOI2,AOI8,some,,12,33-33,Michael's,,Click on the boy that has some of Michael's scissors,1,3_rulers,girl,2_scissors,2_pencils,3_erasers,1_pencil,1_scissor,boy,boy,girl,,,,,,,,boy with some scissors,13754,stationeries,small,,2,8,,boy,,2_scissors,4,[],19,Yes,,1,2,1.50,Other,English,no,Chrome,Windows,720,1280,11.829916666666668,
8,condition1,Exp,,GirlSomeAmyKnives,,,4,10,some,,AOI3,AOI9,some,,15,33-33,Amy's,,Click on the girl that has some of Amy's knives,1,2_spoons,girl,3_plates,2_knives,3_forks,1_spoon,1_knife,boy,boy,girl,,,,,,,,girl with two knives,7924,kitchenwares,small,,3,9,,girl,,2_knives,5,[],19,Yes,,1,2,1.50,Other,English,no,Chrome,Windows,720,1280,11.829916666666668,
8,condition1,Exp,,BoyAllSusanPears,,,1,7,all,,AOI2,AOI8,all,,3,33-33,Susan's,,Click on the boy that has all of Susan's pears,1,2_apples,girl,3_pears,2_bananas,3_oranges,1_apple,1_banana,boy,boy,girl,,,,,,,,boy with all of the pears,8043,fruit,big,,2,8,,boy,,3_pears,6,[],19,Yes,,1,2,1.50,Other,English,no,Chrome,Windows,720,1280,11.829916666666668,
8,condition1,Exp,,GirlAllSusanBananas,,,4,10,all,,AOI3,AOI9,all,,4,33-33,Susan's,,Click on the girl that has all of Susan's bananas,1,2_pears,girl,3_apples,3_bananas,2_oranges,1_orange,1_pear,boy,boy,girl,,,,,,,,girl with all of the bananas,7569,fruit,big,,3,9,,girl,,3_bananas,7,[],19,Yes,,1,2,1.50,Other,English,no,Chrome,Windows,720,1280,11.829916666666668,
8,condition1,Exp,,BoySomeMichaelErasers,,,2,8,some,,AOI1,AOI7,some,,11,33-33,Michael's,,Click on the boy that has some of Michael's erasers,1,2_erasers,girl,3_pencils,2_rulers,3_scissors,1_ruler,1_eraser,boy,boy,girl,,,,,,,,boy with two erasers,7729,stationeries,small,,1,7,,boy,,2_erasers,8,[],19,Yes,,1,2,1.50,Other,English,no,Chrome,Windows,720,1280,11.829916666666668,
8,condition1,Exp,,GirlAllAmySpoons,,,4,10,all,,AOI3,AOI9,all,,36,44-22,Amy's,,Click on the girl that has all of Amy's spoons,1,3_plates,girl,2_knives,2_spoons,3_forks,1_plate,1_fork,boy,boy,girl,,,,,,,,girl with all the spoons,10305,kitchenwares,small,,3,9,,girl,,2_spoons,9,[],19,Yes,,1,2,1.50,Other,English,no,Chrome,Windows,720,1280,11.829916666666668,
8,condition1,Exp,,GirlSomeSusanBananas,,,3,9,some,,AOI4,AOI10,some,,19,44-22,Susan's,,Click on the girl that has some of Susan's bananas,1,3_oranges,girl,2_apples,2_pears,3_bananas,1_banana,1_orange,boy,boy,girl,,,,,,,,girl with three bananas,7405,fruit,big,,4,10,,girl,,3_bananas,10,[],19,Yes,,1,2,1.50,Other,English,no,Chrome,Windows,720,1280,11.829916666666668,
8,condition1,Filler,,BoyOneMichaelRulers,,,1,7,one,,AOI2,AOI8,one,,40,33-33,Michael's,,Click on the boy that has one of Michael's rulers,1,3_erasers,girl,1_ruler,3_pencils,3_scissors,2_scissors,0,boy,boy,girl,,,,,,,,boy with a ruler,15719,stationeries,small,,2,8,,boy,,1_ruler,11,[],19,Yes,,1,2,1.50,Other,English,no,Chrome,Windows,720,1280,11.829916666666668,
8,condition1,Filler,,GirlFourSusanOranges,,,4,10,four,,AOI3,AOI9,four,,45,44-22,Susan's,,Click on the girl that has four of Susan's oranges,1,2_pears,girl,3_apples,4_oranges,1_banana,1_banana,1_apple,boy,boy,girl,,,,,,,,girl with all the oranges,12434,fruit,big,,3,9,,girl,,4_oranges,12,[],19,Yes,,1,2,1.50,Other,English,no,Chrome,Windows,720,1280,11.829916666666668,
8,condition1,Filler,,BoyOneAmyPlates,,,2,8,one,,AOI1,AOI7,one,,38,33-33,Amy's,,Click on the boy that has one of Amy's plates,1,1_plate,girl,3_knives,3_forks,3_spoons,2_plates,0,boy,boy,girl,,,,,,,,boy with a plate,8652,kitchenwares,small,,1,7,,boy,,1_plate,13,[],19,Yes,,1,2,1.50,Other,English,no,Chrome,Windows,720,1280,11.829916666666668,
8,condition1,Filler,,BoyOneSusanApples,,,2,8,one,,AOI1,AOI7,one,,37,33-33,Susan's,,Click on the boy that has one of Susan's apples,1,1_apple,girl,3_pears,3_bananas,3_oranges,2_apples,0,boy,boy,girl,,,,,,,,boy with an apple,6426,fruit,small,,1,7,,boy,,1_apple,14,[],19,Yes,,1,2,1.50,Other,English,no,Chrome,Windows,720,1280,11.829916666666668,
8,condition1,Exp,,BoyThreeAmyPlates,,,2,8,num,,AOI1,AOI7,three,,31,44-22,Amy's,,Click on the boy that has three of Amy's plates,1,3_plates,girl,2_forks,3_spoons,2_knives,1_spoon,1_plate,boy,boy,girl,,,,,,,,boy with three plates,5683,kitchenwares,big,,1,7,,boy,,3_plates,15,[],19,Yes,,1,2,1.50,Other,English,no,Chrome,Windows,720,1280,11.829916666666668,
8,condition1,Exp,,GirlTwoMichaelRulers,,,4,10,num,,AOI3,AOI9,two,,9,33-33,Michael's,,Click on the girl that has two of Michael's rulers,1,3_pencils,girl,2_scissors,2_rulers,3_erasers,1_ruler,1_scissor,boy,boy,girl,,,,,,,,girl with some rulers,9700,stationeries,small,,3,9,,girl,,2_rulers,16,[],19,Yes,,1,2,1.50,Other,English,no,Chrome,Windows,720,1280,11.829916666666668,
8,condition1,Exp,,GirlSomeSusanApples,,,4,10,some,,AOI3,AOI9,some,,20,44-22,Susan's,,Click on the girl that has some of Susan's apples,1,3_pears,girl,2_bananas,3_apples,2_oranges,1_apple,1_pear,boy,boy,girl,,,,,,,,girl with some apples,10412,fruit,big,,3,9,,girl,,3_apples,17,[],19,Yes,,1,2,1.50,Other,English,no,Chrome,Windows,720,1280,11.829916666666668,
8,condition1,Filler,,GirlOneSusanPears,,,3,9,one,,AOI4,AOI10,one,,42,33-33,Susan's,,Click on the girl that has one of Susan's pears,1,3_bananas,girl,3_oranges,3_apples,1_pear,2_pears,0,boy,boy,girl,,,,,,,,girl with a pear,11960,fruit,small,,4,10,,girl,,1_pear,18,[],19,Yes,,1,2,1.50,Other,English,no,Chrome,Windows,720,1280,11.829916666666668,
8,condition1,Exp,,BoyAllAmyKnives,,,2,8,all,,AOI1,AOI7,all,,18,33-33,Amy's,,Click on the boy that has all of Amy's knives,1,3_knives,girl,2_plates,3_spoons,2_forks,1_plate,1_fork,boy,boy,girl,,,,,,,,boy with three knives,6082,kitchenwares,big,,1,7,,boy,,3_knives,19,[],19,Yes,,1,2,1.50,Other,English,no,Chrome,Windows,720,1280,11.829916666666668,
8,condition1,Exp,,BoyThreeAmyKnives,,,1,7,num,,AOI2,AOI8,three,,14,33-33,Amy's,,Click on the boy that has three of Amy's knives,1,2_spoons,girl,3_knives,2_plates,3_forks,1_spoon,1_plate,boy,boy,girl,,,,,,,,boy with all the knives,10568,kitchenwares,big,,2,8,,boy,,3_knives,20,[],19,Yes,,1,2,1.50,Other,English,no,Chrome,Windows,720,1280,11.829916666666668,
8,condition1,Exp,,BoyTwoMichaelPencils,,,1,7,num,,AOI2,AOI8,two,,28,44-22,Michael's,,Click on the boy that has two of Michael's pencils,1,3_scissors,girl,2_pencils,2_erasers,3_rulers,1_ruler,1_scissor,boy,boy,girl,,,,,,,,boy with all the pencils,8402,stationeries,small,,2,8,,boy,,2_pencils,21,[],19,Yes,,1,2,1.50,Other,English,no,Chrome,Windows,720,1280,11.829916666666668,
8,condition1,Filler,,GirlFourAmyPlates,,,3,9,four,,AOI4,AOI10,four,,47,44-22,Amy's,,Click on the girl that has four of Amy's plates,1,1_knife,girl,3_forks,2_spoons,4_plates,1_knife,1_fork,boy,boy,girl,,,,,,,,girl with all the plates,8956,kitchenwares,big,,4,10,,girl,,4_plates,22,[],19,Yes,,1,2,1.50,Other,English,no,Chrome,Windows,720,1280,11.829916666666668,
8,condition1,Exp,,BoySomeSusanOranges,,,1,7,some,,AOI2,AOI8,some,,2,33-33,Susan's,,Click on the boy that has some of Susan's oranges,1,3_apples,girl,2_oranges,2_bananas,3_pears,1_banana,1_orange,boy,boy,girl,,,,,,,,boy with oranges,8791,fruit,small,,2,8,,boy,,2_oranges,23,[],19,Yes,,1,2,1.50,Other,English,no,Chrome,Windows,720,1280,11.829916666666668,
8,condition1,Filler,,BoyFourMichaelScissors,,,2,8,four,,AOI1,AOI7,four,,43,44-22,Michael's,,Click on the boy that has four of Michael's scissors,1,4_scissors,girl,1_pencil,2_rulers,3_erasers,1_pencil,1_eraser,boy,boy,girl,,,,,,,,boy with four scissors,8402,stationeries,big,,1,7,,boy,,4_scissors,24,[],19,Yes,,1,2,1.50,Other,English,no,Chrome,Windows,720,1280,11.829916666666668,
8,condition1,Filler,,GirlOneMichaelErasers,,,4,10,one,,AOI3,AOI9,one,,41,33-33,Michael's,,Click on the girl that has one of Michael's erasers,1,3_pencils,girl,3_scissors,1_eraser,3_rulers,2_erasers,0,boy,boy,girl,,,,,,,,girl with an eraser,9669,stationeries,small,,3,9,,girl,,1_eraser,25,[],19,Yes,,1,2,1.50,Other,English,no,Chrome,Windows,720,1280,11.829916666666668,
8,condition1,Exp,,BoyAllSusanApples,,,2,8,all,,AOI1,AOI7,all,,22,44-22,Susan's,,Click on the boy that has all of Susan's apples,1,2_apples,girl,3_pears,3_oranges,2_bananas,1_orange,1_pear,boy,boy,girl,,,,,,,,boy with all the apples,6587,fruit,small,,1,7,,boy,,2_apples,26,[],19,Yes,,1,2,1.50,Other,English,no,Chrome,Windows,720,1280,11.829916666666668,
8,condition1,Exp,,GirlTwoAmyForks,,,3,9,num,,AOI4,AOI10,two,,13,33-33,Amy's,,Click on the girl that has two of Amy's forks,1,2_knives,girl,3_spoons,3_plates,2_forks,1_fork,1_knife,boy,boy,girl,,,,,,,,girl with some forks,7110,kitchenwares,small,,4,10,,girl,,2_forks,27,[],19,Yes,,1,2,1.50,Other,English,no,Chrome,Windows,720,1280,11.829916666666668,
8,condition1,Exp,,GirlThreeSusanPears,,,3,9,num,,AOI4,AOI10,three,,6,33-33,Susan's,,Click on the girl that has three of Susan's pears,1,2_oranges,girl,3_bananas,2_apples,3_pears,1_apple,1_orange,boy,boy,girl,,,,,,,,girl with all the pears,6251,fruit,big,,4,10,,girl,,3_pears,28,[],19,Yes,,1,2,1.50,Other,English,no,Chrome,Windows,720,1280,11.829916666666668,
8,condition1,Filler,,BoyOneAmySpoons,,,1,7,one,,AOI2,AOI8,one,,39,33-33,Amy's,,Click on the boy that has one of Amy's spoons,1,3_forks,girl,1_spoon,3_plates,3_knives,2_spoons,0,boy,boy,girl,,,,,,,,boy with a spoon,6407,kitchenwares,small,,2,8,,boy,,1_spoon,29,[],19,Yes,,1,2,1.50,Other,English,no,Chrome,Windows,720,1280,11.829916666666668,
8,condition1,Exp,,BoySomeMichaelPencils,,,2,8,some,,AOI1,AOI7,some,,29,44-22,Michael's,,Click on the boy that has some of Michael's pencils,1,3_pencils,girl,2_erasers,3_scissors,2_rulers,1_pencil,1_scissor,boy,boy,girl,,,,,,,,boy with some pencils,7354,stationeries,big,,1,7,,boy,,3_pencils,30,[],19,Yes,,1,2,1.50,Other,English,no,Chrome,Windows,720,1280,11.829916666666668,
8,condition1,Exp,,GirlTwoSusanBananas,,,3,9,num,,AOI4,AOI10,two,,5,33-33,Susan's,,Click on the girl that has two of Susan's bananas,1,2_pears,girl,3_apples,3_oranges,2_bananas,1_banana,1_pear,boy,boy,girl,,,,,,,,girl with some bananas,7779,fruit,small,,4,10,,girl,,2_bananas,31,[],19,Yes,,1,2,1.50,Other,English,no,Chrome,Windows,720,1280,11.829916666666668,
8,condition1,Exp,,BoyAllAmyForks,,,1,7,all,,AOI2,AOI8,all,,17,33-33,Amy's,,Click on the boy that has all of Amy's forks,1,2_spoons,girl,3_forks,2_knives,3_plates,1_spoon,1_knife,boy,boy,girl,,,,,,,,boy with three forks,6301,kitchenwares,big,,2,8,,boy,,3_forks,32,[],19,Yes,,1,2,1.50,Other,English,no,Chrome,Windows,720,1280,11.829916666666668,
8,condition1,Filler,,BoyFourSusanBananas,,,1,7,four,,AOI2,AOI8,four,,44,44-22,Susan's,,Click on the boy that has four of Susan's bananas,1,1_orange,girl,4_bananas,3_pears,2_apples,1_orange,1_pear,boy,boy,girl,,,,,,,,boy with the bananas,6845,fruit,big,,2,8,,boy,,4_bananas,33,[],19,Yes,,1,2,1.50,Other,English,no,Chrome,Windows,720,1280,11.829916666666668,
8,condition1,Exp,,GirlSomeAmyForks,,,4,10,some,,AOI3,AOI9,some,,34,44-22,Amy's,,Click on the girl that has some of Amy's forks,1,2_spoons,girl,3_plates,3_forks,2_knives,1_fork,1_plate,boy,boy,girl,,,,,,,,girl with three forks,8552,kitchenwares,big,,3,9,,girl,,3_forks,34,[],19,Yes,,1,2,1.50,Other,English,no,Chrome,Windows,720,1280,11.829916666666668,
8,condition1,Exp,,BoyTwoAmySpoons,,,2,8,num,,AOI1,AOI7,two,,32,44-22,Amy's,,Click on the boy that has two of Amy's spoons,1,2_spoons,girl,3_knives,3_forks,2_plates,1_fork,1_knife,boy,boy,girl,,,,,,,,boy with two spoons,6255,kitchenwares,small,,1,7,,boy,,2_spoons,35,[],19,Yes,,1,2,1.50,Other,English,no,Chrome,Windows,720,1280,11.829916666666668,
8,condition1,Exp,,GirlThreeSusanOranges,,,4,10,num,,AOI3,AOI9,three,,23,44-22,Susan's,,Click on the girl that has three of Susan's oranges,1,3_apples,girl,2_pears,3_oranges,2_bananas,1_apple,1_orange,boy,boy,girl,,,,,,,,girl with three oranges,5443,fruit,big,,3,9,,girl,,3_oranges,36,[],19,Yes,,1,2,1.50,Other,English,no,Chrome,Windows,720,1280,11.829916666666668,
8,condition1,Exp,,GirlAllAmyPlates,,,3,9,all,,AOI4,AOI10,all,,35,44-22,Amy's,,Click on the girl that has all of Amy's plates,1,3_spoons,girl,2_forks,3_knives,2_plates,1_spoon,1_knife,boy,boy,girl,,,,,,,,girl with two plates,4919,kitchenwares,small,,4,10,,girl,,2_plates,37,[],19,Yes,,1,2,1.50,Other,English,no,Chrome,Windows,720,1280,11.829916666666668,
8,condition1,Exp,,BoyThreeMichaelErasers,,,1,7,num,,AOI2,AOI8,three,,27,44-22,Michael's,,Click on the boy that has three of Michael's erasers,1,2_rulers,girl,3_erasers,2_scissors,3_pencils,1_pencil,1_eraser,boy,boy,girl,,,,,,,,boy with some erasers,6440,stationeries,big,,2,8,,boy,,3_erasers,38,[],19,Yes,,1,2,1.50,Other,English,no,Chrome,Windows,720,1280,11.829916666666668,
8,condition1,Exp,,BoyTwoSusanApples,,,2,8,num,,AOI1,AOI7,two,,24,44-22,Susan's,,Click on the boy that has two of Susan's apples,1,2_apples,girl,3_pears,3_bananas,2_oranges,1_banana,1_pear,boy,boy,girl,,,,,,,,boy with the apples,5438,fruit,small,,1,7,,boy,,2_apples,39,[],19,Yes,,1,2,1.50,Other,English,no,Chrome,Windows,720,1280,11.829916666666668,
8,condition1,Exp,,GirlAllMichaelErasers,,,4,10,all,,AOI3,AOI9,all,,26,44-22,Michael's,,Click on the girl that has all of Michael's erasers,1,3_pencils,girl,2_scissors,2_erasers,3_rulers,1_pencil,1_ruler,boy,boy,girl,,,,,,,,girl with the erasers,6990,stationeries,small,,3,9,,girl,,2_erasers,40,[],19,Yes,,1,2,1.50,Other,English,no,Chrome,Windows,720,1280,11.829916666666668,
8,condition1,Exp,,BoySomeAmySpoons,,,1,7,some,,AOI2,AOI8,some,,33,44-22,Amy's,,Click on the boy that has some of Amy's spoons,1,2_plates,girl,3_spoons,2_forks,3_knives,1_spoon,1_knife,boy,boy,girl,,,,,,,,boy with three spoons,5593,kitchenwares,big,,2,8,,boy,,3_spoons,41,[],19,Yes,,1,2,1.50,Other,English,no,Chrome,Windows,720,1280,11.829916666666668,
8,condition1,Exp,,BoyAllSusanOranges,,,1,7,all,,AOI2,AOI8,all,,21,44-22,Susan's,,Click on the boy that has all of Susan's oranges,1,3_bananas,girl,2_oranges,3_apples,2_pears,1_apple,1_banana,boy,boy,girl,,,,,,,,boy with the oranges,5208,fruit,small,,2,8,,boy,,2_oranges,42,[],19,Yes,,1,2,1.50,Other,English,no,Chrome,Windows,720,1280,11.829916666666668,
8,condition1,Filler,,GirlFourAmyKnives,,,4,10,four,,AOI3,AOI9,four,,46,44-22,Amy's,,Click on the girl that has four of Amy's knives,1,1_spoon,girl,3_plates,4_knives,2_forks,1_spoon,1_plate,boy,boy,girl,,,,,,,,girl with the knives,7079,kitchenwares,big,,3,9,,girl,,4_knives,43,[],19,Yes,,1,2,1.50,Other,English,no,Chrome,Windows,720,1280,11.829916666666668,
8,condition1,Exp,,GirlAllMichaelRulers,,,3,9,all,,AOI4,AOI10,all,,8,33-33,Michael's,,Click on the girl that has all of Michael's rulers,1,2_scissors,girl,3_pencils,2_erasers,3_rulers,1_eraser,1_scissor,boy,boy,girl,,,,,,,,girl with three rulers,7858,stationeries,big,,4,10,,girl,,3_rulers,44,[],19,Yes,,1,2,1.50,Other,English,no,Chrome,Windows,720,1280,11.829916666666668,
8,condition1,Exp,,BoySomeSusanPears,,,2,8,some,,AOI1,AOI7,some,,1,33-33,Susan's,,Click on the boy that has some of Susan's pears,1,2_pears,girl,3_bananas,2_apples,3_oranges,1_apple,1_pear,boy,boy,girl,,,,,,,,boy with two pears,6096,fruit,small,,1,7,,boy,,2_pears,45,[],19,Yes,,1,2,1.50,Other,English,no,Chrome,Windows,720,1280,11.829916666666668,
8,condition1,Exp,,GirlSomeMichaelRulers,,,3,9,some,,AOI4,AOI10,some,,30,44-22,Michael's,,Click on the girl that has some of Michael's rulers,1,3_erasers,girl,2_pencils,2_scissors,3_rulers,1_ruler,1_eraser,boy,boy,girl,,,,,,,,girl with three rulers,6840,stationeries,big,,4,10,,girl,,3_rulers,46,[],19,Yes,,1,2,1.50,Other,English,no,Chrome,Windows,720,1280,11.829916666666668,
8,condition1,Exp,,GirlSomeAmyPlates,,,3,9,some,,AOI4,AOI10,some,,16,33-33,Amy's,,Click on the girl that has some of Amy's plates,1,2_forks,girl,3_knives,3_spoons,2_plates,1_fork,1_plate,boy,boy,girl,,,,,,,,girl with two plates,4865,kitchenwares,small,,4,10,,girl,,2_plates,47,[],19,Yes,,1,2,1.50,Other,English,no,Chrome,Windows,720,1280,11.829916666666668,
8,condition1,Exp,,GirlThreeMichaelScissors,,,4,10,num,,AOI3,AOI9,three,,10,33-33,Michael's,,Click on the girl that has three of Michael's scissors,1,3_rulers,girl,2_erasers,3_scissors,2_pencils,1_pencil,1_eraser,boy,boy,girl,,,,,,,,girl with three scissors,8564,stationeries,big,,3,9,,girl,,3_scissors,48,[],19,Yes,,1,2,1.50,Other,English,no,Chrome,Windows,720,1280,11.829916666666668,
9,condition1,Prac,Fruit_Susan_Monday,,Fruit_residue,1,2,,,two,AOI1,AOI7,,two,1,33-33,Susan,Click on the boy that has two of Susan's apples,,,2_apples,girl,3_bananas,2_pears,3_oranges,1_apple,1_pear,boy,boy,girl,apples,D3_pears,D3_bananas,D3_oranges,clicking practice,,BoyTwoSusanapples,"['AOI4', 'AOI1', 'AOI7', 'AOI7']",,fruit,,small,1,,boy,,2_apples,,,[],38,No,It was interesting to complete the task without being fully aware of the principle or mechanism being studied!,4,2,yes,Female,English,nothing that I noticed,Chrome,Windows,864,1536,9.9516,
9,condition1,Prac,Fruit_Susan_Tuesday,,Slience,2,1,,,some,AOI3,AOI9,,some,2,44-22,Susan,Click on the girl that has some of Susan's apples,,,3_bananas,girl,2_pears,3_apples,2_oranges,1_apple,1_banana,boy,boy,girl,apples,D2_pears,D4_bananas,D2_oranges,clicking practice,,GirlSomeSusanapples,"['AOI9', 'AOI9', 'AOI9', 'AOI9']",,fruit,,small,3,,girl,,3_apples,,,[],38,No,It was interesting to complete the task without being fully aware of the principle or mechanism being studied!,4,2,yes,Female,English,nothing that I noticed,Chrome,Windows,864,1536,9.9516,
9,condition1,Prac,Stationary_Michael_Monday,,Residue_stationary,3,4,,,num,AOI1,AOI7,,three,3,33-33,Michael,Click on the boy that has three of Michael's scissors,,,3_scissors,girl,2_pencils,3_erasers,2_rulers,1_pencil,1_ruler,boy,boy,girl,erasers,D3_pencils,D3_erasers,D3_rulers,clicking practice,,BoyThreeMichaelscissors,"['AOI8', 'AOI8', 'AOI7', 'AOI7']",,office supplies,,big,1,,boy,,3_scissors,,,[],38,No,It was interesting to complete the task without being fully aware of the principle or mechanism being studied!,4,2,yes,Female,English,nothing that I noticed,Chrome,Windows,864,1536,9.9516,
9,condition1,Prac,Stationary_Michael_Tuesday,,Residue_stationary,4,3,,,all,AOI4,AOI10,,all,4,44-22,Michael,Click on the girl that has all of Michael's rulers,,,3_pencils,girl,2_scissors,3_erasers,2_rulers,1_pencil,1_eraser,boy,boy,girl,rulers,D4_pencils,D4_erasers,D2_rulers,clicking practice,,GirlAllMichaelrulers,"['AOI9', 'AOI9', 'AOI10', 'AOI10']",,office supplies,,small,4,,girl,,2_rulers,,,[],38,No,It was interesting to complete the task without being fully aware of the principle or mechanism being studied!,4,2,yes,Female,English,nothing that I noticed,Chrome,Windows,864,1536,9.9516,
9,condition1,Prac,kitchware_Amy_Monday,,Residue_kitchen,,4,,,num,AOI3,AOI9,,three,5,44-22,Amy,Click on the girl that has three of Amy's knives,,,2_spoons,girl,3_forks,3_knives,2_plates,1_fork,1_knife,boy,boy,girl,knives,D4_forks,D2_spoons,D4_knives,production practice,1,GirlThreeAmyknives,girl who has three of Amy's knives,,kitchenwares,,big,3,,girl,,3_knives,,,[],38,No,It was interesting to complete the task without being fully aware of the principle or mechanism being studied!,4,2,yes,Female,English,nothing that I noticed,Chrome,Windows,864,1536,9.9516,
9,condition1,Prac,kitchware_Amy_Tuesday,,Slience,,2,,,some,AOI4,AOI10,,some,6,33-33,Amy,Click on the girl that has some of Amy's forks,,,3_spoons,girl,2_knives,3_plates,2_forks,1_fork,1_knife,boy,boy,girl,forks,D3_forks,D3_spoons,D3_knives,production practice,2,GirlSomeAmyforks,girl who has two of Amy's forks,,kitchenwares,,big,4,,girl,,2_forks,,,[],38,No,It was interesting to complete the task without being fully aware of the principle or mechanism being studied!,4,2,yes,Female,English,nothing that I noticed,Chrome,Windows,864,1536,9.9516,
9,condition1,Filler,,BoyOneMichaelRulers,,,1,7,one,,AOI2,AOI8,one,,40,33-33,Michael's,,Click on the boy that has one of Michael's rulers,1,3_erasers,girl,1_ruler,3_pencils,3_scissors,2_scissors,0,boy,boy,girl,,,,,,,,boy who has Amy's ruler,10447,stationeries,small,,2,8,,boy,,1_ruler,1,[],38,No,It was interesting to complete the task without being fully aware of the principle or mechanism being studied!,4,2,yes,Female,English,nothing that I noticed,Chrome,Windows,864,1536,9.9516,
9,condition1,Exp,,BoyAllMichaelScissors,,,2,8,all,,AOI1,AOI7,all,,7,33-33,Michael's,,Click on the boy that has all of Michael's scissors,1,3_scissors,girl,2_pencils,3_erasers,2_rulers,1_pencil,1_ruler,boy,boy,girl,,,,,,,,boy who has all of the scissors,8697,stationeries,big,,1,7,,boy,,3_scissors,2,[],38,No,It was interesting to complete the task without being fully aware of the principle or mechanism being studied!,4,2,yes,Female,English,nothing that I noticed,Chrome,Windows,864,1536,9.9516,
9,condition1,Filler,,BoyOneSusanApples,,,2,8,one,,AOI1,AOI7,one,,37,33-33,Susan's,,Click on the boy that has one of Susan's apples,1,1_apple,girl,3_pears,3_bananas,3_oranges,2_apples,0,boy,boy,girl,,,,,,,,boy who has one of the apples,9272,fruit,small,,1,7,,boy,,1_apple,3,[],38,No,It was interesting to complete the task without being fully aware of the principle or mechanism being studied!,4,2,yes,Female,English,nothing that I noticed,Chrome,Windows,864,1536,9.9516,
9,condition1,Exp,,BoySomeSusanPears,,,2,8,some,,AOI1,AOI7,some,,1,33-33,Susan's,,Click on the boy that has some of Susan's pears,1,2_pears,girl,3_bananas,2_apples,3_oranges,1_apple,1_pear,boy,boy,girl,,,,,,,,boy who has two of the pears,3839,fruit,small,,1,7,,boy,,2_pears,4,[],38,No,It was interesting to complete the task without being fully aware of the principle or mechanism being studied!,4,2,yes,Female,English,nothing that I noticed,Chrome,Windows,864,1536,9.9516,
9,condition1,Exp,,GirlSomeAmyKnives,,,4,10,some,,AOI3,AOI9,some,,15,33-33,Amy's,,Click on the girl that has some of Amy's knives,1,2_spoons,girl,3_plates,2_knives,3_forks,1_spoon,1_knife,boy,boy,girl,,,,,,,,girl who has two of the knives,6202,kitchenwares,small,,3,9,,girl,,2_knives,5,[],38,No,It was interesting to complete the task without being fully aware of the principle or mechanism being studied!,4,2,yes,Female,English,nothing that I noticed,Chrome,Windows,864,1536,9.9516,
9,condition1,Exp,,BoyTwoMichaelPencils,,,1,7,num,,AOI2,AOI8,two,,28,44-22,Michael's,,Click on the boy that has two of Michael's pencils,1,3_scissors,girl,2_pencils,2_erasers,3_rulers,1_ruler,1_scissor,boy,boy,girl,,,,,,,,boy who has all of the pencils,9190,stationeries,small,,2,8,,boy,,2_pencils,6,[],38,No,It was interesting to complete the task without being fully aware of the principle or mechanism being studied!,4,2,yes,Female,English,nothing that I noticed,Chrome,Windows,864,1536,9.9516,
9,condition1,Exp,,GirlAllMichaelPencils,,,3,9,all,,AOI4,AOI10,all,,25,44-22,Michael's,,Click on the girl that has all of Michael's pencils,1,3_erasers,girl,2_rulers,3_scissors,2_pencils,1_eraser,1_scissor,boy,boy,girl,,,,,,,,girl who has all of the pencils,6118,stationeries,small,,4,10,,girl,,2_pencils,7,[],38,No,It was interesting to complete the task without being fully aware of the principle or mechanism being studied!,4,2,yes,Female,English,nothing that I noticed,Chrome,Windows,864,1536,9.9516,
9,condition1,Exp,,BoySomeAmySpoons,,,1,7,some,,AOI2,AOI8,some,,33,44-22,Amy's,,Click on the boy that has some of Amy's spoons,1,2_plates,girl,3_spoons,2_forks,3_knives,1_spoon,1_knife,boy,boy,girl,,,,,,,,boy who has three of the spoons,5456,kitchenwares,big,,2,8,,boy,,3_spoons,8,[],38,No,It was interesting to complete the task without being fully aware of the principle or mechanism being studied!,4,2,yes,Female,English,nothing that I noticed,Chrome,Windows,864,1536,9.9516,
9,condition1,Exp,,BoyAllSusanPears,,,1,7,all,,AOI2,AOI8,all,,3,33-33,Susan's,,Click on the boy that has all of Susan's pears,1,2_apples,girl,3_pears,2_bananas,3_oranges,1_apple,1_banana,boy,boy,girl,,,,,,,,boy who has three of the pears,8306,fruit,big,,2,8,,boy,,3_pears,9,[],38,No,It was interesting to complete the task without being fully aware of the principle or mechanism being studied!,4,2,yes,Female,English,nothing that I noticed,Chrome,Windows,864,1536,9.9516,
9,condition1,Filler,,BoyOneAmyPlates,,,2,8,one,,AOI1,AOI7,one,,38,33-33,Amy's,,Click on the boy that has one of Amy's plates,1,1_plate,girl,3_knives,3_forks,3_spoons,2_plates,0,boy,boy,girl,,,,,,,,boy who has one of the plate,5539,kitchenwares,small,,1,7,,boy,,1_plate,10,[],38,No,It was interesting to complete the task without being fully aware of the principle or mechanism being studied!,4,2,yes,Female,English,nothing that I noticed,Chrome,Windows,864,1536,9.9516,
9,condition1,Exp,,GirlTwoAmyForks,,,3,9,num,,AOI4,AOI10,two,,13,33-33,Amy's,,Click on the girl that has two of Amy's forks,1,2_knives,girl,3_spoons,3_plates,2_forks,1_fork,1_knife,boy,boy,girl,,,,,,,,girl who has two of the forks,4433,kitchenwares,small,,4,10,,girl,,2_forks,11,[],38,No,It was interesting to complete the task without being fully aware of the principle or mechanism being studied!,4,2,yes,Female,English,nothing that I noticed,Chrome,Windows,864,1536,9.9516,
9,condition1,Exp,,GirlThreeMichaelScissors,,,4,10,num,,AOI3,AOI9,three,,10,33-33,Michael's,,Click on the girl that has three of Michael's scissors,1,3_rulers,girl,2_erasers,3_scissors,2_pencils,1_pencil,1_eraser,boy,boy,girl,,,,,,,,girl who has all of the scissorts,9749,stationeries,big,,3,9,,girl,,3_scissors,12,[],38,No,It was interesting to complete the task without being fully aware of the principle or mechanism being studied!,4,2,yes,Female,English,nothing that I noticed,Chrome,Windows,864,1536,9.9516,
9,condition1,Exp,,GirlAllMichaelRulers,,,3,9,all,,AOI4,AOI10,all,,8,33-33,Michael's,,Click on the girl that has all of Michael's rulers,1,2_scissors,girl,3_pencils,2_erasers,3_rulers,1_eraser,1_scissor,boy,boy,girl,,,,,,,,girl who has all of the rulers,5217,stationeries,big,,4,10,,girl,,3_rulers,13,[],38,No,It was interesting to complete the task without being fully aware of the principle or mechanism being studied!,4,2,yes,Female,English,nothing that I noticed,Chrome,Windows,864,1536,9.9516,
9,condition1,Exp,,GirlSomeAmyForks,,,4,10,some,,AOI3,AOI9,some,,34,44-22,Amy's,,Click on the girl that has some of Amy's forks,1,2_spoons,girl,3_plates,3_forks,2_knives,1_fork,1_plate,boy,boy,girl,,,,,,,,girl who has three of the forks,6857,kitchenwares,big,,3,9,,girl,,3_forks,14,[],38,No,It was interesting to complete the task without being fully aware of the principle or mechanism being studied!,4,2,yes,Female,English,nothing that I noticed,Chrome,Windows,864,1536,9.9516,
9,condition1,Filler,,BoyFourSusanBananas,,,1,7,four,,AOI2,AOI8,four,,44,44-22,Susan's,,Click on the boy that has four of Susan's bananas,1,1_orange,girl,4_bananas,3_pears,2_apples,1_orange,1_pear,boy,boy,girl,,,,,,,,boy who has all of the bananas,4790,fruit,big,,2,8,,boy,,4_bananas,15,[],38,No,It was interesting to complete the task without being fully aware of the principle or mechanism being studied!,4,2,yes,Female,English,nothing that I noticed,Chrome,Windows,864,1536,9.9516,
9,condition1,Exp,,GirlAllAmySpoons,,,4,10,all,,AOI3,AOI9,all,,36,44-22,Amy's,,Click on the girl that has all of Amy's spoons,1,3_plates,girl,2_knives,2_spoons,3_forks,1_plate,1_fork,boy,boy,girl,,,,,,,,girl who has two of the spoons,6994,kitchenwares,small,,3,9,,girl,,2_spoons,16,[],38,No,It was interesting to complete the task without being fully aware of the principle or mechanism being studied!,4,2,yes,Female,English,nothing that I noticed,Chrome,Windows,864,1536,9.9516,
9,condition1,Exp,,GirlAllAmyPlates,,,3,9,all,,AOI4,AOI10,all,,35,44-22,Amy's,,Click on the girl that has all of Amy's plates,1,3_spoons,girl,2_forks,3_knives,2_plates,1_spoon,1_knife,boy,boy,girl,,,,,,,,girl who has all of the plates,6146,kitchenwares,small,,4,10,,girl,,2_plates,17,[],38,No,It was interesting to complete the task without being fully aware of the principle or mechanism being studied!,4,2,yes,Female,English,nothing that I noticed,Chrome,Windows,864,1536,9.9516,
9,condition1,Exp,,GirlThreeSusanOranges,,,4,10,num,,AOI3,AOI9,three,,23,44-22,Susan's,,Click on the girl that has three of Susan's oranges,1,3_apples,girl,2_pears,3_oranges,2_bananas,1_apple,1_orange,boy,boy,girl,,,,,,,,girl who has three of the oranges,4899,fruit,big,,3,9,,girl,,3_oranges,18,[],38,No,It was interesting to complete the task without being fully aware of the principle or mechanism being studied!,4,2,yes,Female,English,nothing that I noticed,Chrome,Windows,864,1536,9.9516,
9,condition1,Exp,,BoyThreeAmyPlates,,,2,8,num,,AOI1,AOI7,three,,31,44-22,Amy's,,Click on the boy that has three of Amy's plates,1,3_plates,girl,2_forks,3_spoons,2_knives,1_spoon,1_plate,boy,boy,girl,,,,,,,,boy who has three of the plates,4132,kitchenwares,big,,1,7,,boy,,3_plates,19,[],38,No,It was interesting to complete the task without being fully aware of the principle or mechanism being studied!,4,2,yes,Female,English,nothing that I noticed,Chrome,Windows,864,1536,9.9516,
9,condition1,Exp,,BoyAllAmyForks,,,1,7,all,,AOI2,AOI8,all,,17,33-33,Amy's,,Click on the boy that has all of Amy's forks,1,2_spoons,girl,3_forks,2_knives,3_plates,1_spoon,1_knife,boy,boy,girl,,,,,,,,boy who has all of the forks,4158,kitchenwares,big,,2,8,,boy,,3_forks,20,[],38,No,It was interesting to complete the task without being fully aware of the principle or mechanism being studied!,4,2,yes,Female,English,nothing that I noticed,Chrome,Windows,864,1536,9.9516,
9,condition1,Exp,,GirlAllMichaelErasers,,,4,10,all,,AOI3,AOI9,all,,26,44-22,Michael's,,Click on the girl that has all of Michael's erasers,1,3_pencils,girl,2_scissors,2_erasers,3_rulers,1_pencil,1_ruler,boy,boy,girl,,,,,,,,girl who has all of the rulers,5261,stationeries,small,,3,9,,girl,,2_erasers,21,[],38,No,It was interesting to complete the task without being fully aware of the principle or mechanism being studied!,4,2,yes,Female,English,nothing that I noticed,Chrome,Windows,864,1536,9.9516,
9,condition1,Exp,,GirlTwoSusanBananas,,,3,9,num,,AOI4,AOI10,two,,5,33-33,Susan's,,Click on the girl that has two of Susan's bananas,1,2_pears,girl,3_apples,3_oranges,2_bananas,1_banana,1_pear,boy,boy,girl,,,,,,,,girl who has two of the bananas,4862,fruit,small,,4,10,,girl,,2_bananas,22,[],38,No,It was interesting to complete the task without being fully aware of the principle or mechanism being studied!,4,2,yes,Female,English,nothing that I noticed,Chrome,Windows,864,1536,9.9516,
9,condition1,Filler,,GirlFourMichaelPencils,,,3,9,four,,AOI4,AOI10,four,,48,44-22,Michael's,,Click on the girl that has four of Michael's pencils,1,1_ruler,girl,2_erasers,3_scissors,4_pencils,1_ruler,1_scissor,boy,boy,girl,,,,,,,,girl who has all of the pencils,7159,stationeries,big,,4,10,,girl,,4_pencils,23,[],38,No,It was interesting to complete the task without being fully aware of the principle or mechanism being studied!,4,2,yes,Female,English,nothing that I noticed,Chrome,Windows,864,1536,9.9516,
9,condition1,Exp,,BoyTwoSusanApples,,,2,8,num,,AOI1,AOI7,two,,24,44-22,Susan's,,Click on the boy that has two of Susan's apples,1,2_apples,girl,3_pears,3_bananas,2_oranges,1_banana,1_pear,boy,boy,girl,,,,,,,,boy who has all of the apples,3777,fruit,small,,1,7,,boy,,2_apples,24,[],38,No,It was interesting to complete the task without being fully aware of the principle or mechanism being studied!,4,2,yes,Female,English,nothing that I noticed,Chrome,Windows,864,1536,9.9516,
9,condition1,Exp,,BoyThreeAmyKnives,,,1,7,num,,AOI2,AOI8,three,,14,33-33,Amy's,,Click on the boy that has three of Amy's knives,1,2_spoons,girl,3_knives,2_plates,3_forks,1_spoon,1_plate,boy,boy,girl,,,,,,,,boy who has all of the knives,4357,kitchenwares,big,,2,8,,boy,,3_knives,25,[],38,No,It was interesting to complete the task without being fully aware of the principle or mechanism being studied!,4,2,yes,Female,English,nothing that I noticed,Chrome,Windows,864,1536,9.9516,
9,condition1,Exp,,BoyAllSusanOranges,,,1,7,all,,AOI2,AOI8,all,,21,44-22,Susan's,,Click on the boy that has all of Susan's oranges,1,3_bananas,girl,2_oranges,3_apples,2_pears,1_apple,1_banana,boy,boy,girl,,,,,,,,boy who has all of the oranges,4131,fruit,small,,2,8,,boy,,2_oranges,26,[],38,No,It was interesting to complete the task without being fully aware of the principle or mechanism being studied!,4,2,yes,Female,English,nothing that I noticed,Chrome,Windows,864,1536,9.9516,
9,condition1,Exp,,BoyTwoAmySpoons,,,2,8,num,,AOI1,AOI7,two,,32,44-22,Amy's,,Click on the boy that has two of Amy's spoons,1,2_spoons,girl,3_knives,3_forks,2_plates,1_fork,1_knife,boy,boy,girl,,,,,,,,boy who has two of the spoons,5593,kitchenwares,small,,1,7,,boy,,2_spoons,27,[],38,No,It was interesting to complete the task without being fully aware of the principle or mechanism being studied!,4,2,yes,Female,English,nothing that I noticed,Chrome,Windows,864,1536,9.9516,
9,condition1,Filler,,GirlOneSusanPears,,,3,9,one,,AOI4,AOI10,one,,42,33-33,Susan's,,Click on the girl that has one of Susan's pears,1,3_bananas,girl,3_oranges,3_apples,1_pear,2_pears,0,boy,boy,girl,,,,,,,,girl who has one of the pears,4487,fruit,small,,4,10,,girl,,1_pear,28,[],38,No,It was interesting to complete the task without being fully aware of the principle or mechanism being studied!,4,2,yes,Female,English,nothing that I noticed,Chrome,Windows,864,1536,9.9516,
9,condition1,Exp,,BoySomeSusanOranges,,,1,7,some,,AOI2,AOI8,some,,2,33-33,Susan's,,Click on the boy that has some of Susan's oranges,1,3_apples,girl,2_oranges,2_bananas,3_pears,1_banana,1_orange,boy,boy,girl,,,,,,,,boy who has two of the oranges,4090,fruit,small,,2,8,,boy,,2_oranges,29,[],38,No,It was interesting to complete the task without being fully aware of the principle or mechanism being studied!,4,2,yes,Female,English,nothing that I noticed,Chrome,Windows,864,1536,9.9516,
9,condition1,Filler,,BoyOneAmySpoons,,,1,7,one,,AOI2,AOI8,one,,39,33-33,Amy's,,Click on the boy that has one of Amy's spoons,1,3_forks,girl,1_spoon,3_plates,3_knives,2_spoons,0,boy,boy,girl,,,,,,,,boy who has one of the spoons,4726,kitchenwares,small,,2,8,,boy,,1_spoon,30,[],38,No,It was interesting to complete the task without being fully aware of the principle or mechanism being studied!,4,2,yes,Female,English,nothing that I noticed,Chrome,Windows,864,1536,9.9516,
9,condition1,Exp,,BoyAllSusanApples,,,2,8,all,,AOI1,AOI7,all,,22,44-22,Susan's,,Click on the boy that has all of Susan's apples,1,2_apples,girl,3_pears,3_oranges,2_bananas,1_orange,1_pear,boy,boy,girl,,,,,,,,boy who has two of the apples,8945,fruit,small,,1,7,,boy,,2_apples,31,[],38,No,It was interesting to complete the task without being fully aware of the principle or mechanism being studied!,4,2,yes,Female,English,nothing that I noticed,Chrome,Windows,864,1536,9.9516,
9,condition1,Exp,,GirlThreeSusanPears,,,3,9,num,,AOI4,AOI10,three,,6,33-33,Susan's,,Click on the girl that has three of Susan's pears,1,2_oranges,girl,3_bananas,2_apples,3_pears,1_apple,1_orange,boy,boy,girl,,,,,,,,girl who has all of the pears,5294,fruit,big,,4,10,,girl,,3_pears,32,[],38,No,It was interesting to complete the task without being fully aware of the principle or mechanism being studied!,4,2,yes,Female,English,nothing that I noticed,Chrome,Windows,864,1536,9.9516,
9,condition1,Filler,,GirlFourSusanOranges,,,4,10,four,,AOI3,AOI9,four,,45,44-22,Susan's,,Click on the girl that has four of Susan's oranges,1,2_pears,girl,3_apples,4_oranges,1_banana,1_banana,1_apple,boy,boy,girl,,,,,,,,girl who has all of the oranges,4169,fruit,big,,3,9,,girl,,4_oranges,33,[],38,No,It was interesting to complete the task without being fully aware of the principle or mechanism being studied!,4,2,yes,Female,English,nothing that I noticed,Chrome,Windows,864,1536,9.9516,
9,condition1,Exp,,GirlSomeSusanApples,,,4,10,some,,AOI3,AOI9,some,,20,44-22,Susan's,,Click on the girl that has some of Susan's apples,1,3_pears,girl,2_bananas,3_apples,2_oranges,1_apple,1_pear,boy,boy,girl,,,,,,,,girl who has three of the apples,6549,fruit,big,,3,9,,girl,,3_apples,34,[],38,No,It was interesting to complete the task without being fully aware of the principle or mechanism being studied!,4,2,yes,Female,English,nothing that I noticed,Chrome,Windows,864,1536,9.9516,
9,condition1,Exp,,GirlSomeSusanBananas,,,3,9,some,,AOI4,AOI10,some,,19,44-22,Susan's,,Click on the girl that has some of Susan's bananas,1,3_oranges,girl,2_apples,2_pears,3_bananas,1_banana,1_orange,boy,boy,girl,,,,,,,,girl who has three of the bananas,4936,fruit,big,,4,10,,girl,,3_bananas,35,[],38,No,It was interesting to complete the task without being fully aware of the principle or mechanism being studied!,4,2,yes,Female,English,nothing that I noticed,Chrome,Windows,864,1536,9.9516,
9,condition1,Exp,,GirlTwoMichaelRulers,,,4,10,num,,AOI3,AOI9,two,,9,33-33,Michael's,,Click on the girl that has two of Michael's rulers,1,3_pencils,girl,2_scissors,2_rulers,3_erasers,1_ruler,1_scissor,boy,boy,girl,,,,,,,,girl who has two of the rulers,4848,stationeries,small,,3,9,,girl,,2_rulers,36,[],38,No,It was interesting to complete the task without being fully aware of the principle or mechanism being studied!,4,2,yes,Female,English,nothing that I noticed,Chrome,Windows,864,1536,9.9516,
9,condition1,Exp,,GirlSomeMichaelRulers,,,3,9,some,,AOI4,AOI10,some,,30,44-22,Michael's,,Click on the girl that has some of Michael's rulers,1,3_erasers,girl,2_pencils,2_scissors,3_rulers,1_ruler,1_eraser,boy,boy,girl,,,,,,,,girl who has three of the rulers,6134,stationeries,big,,4,10,,girl,,3_rulers,37,[],38,No,It was interesting to complete the task without being fully aware of the principle or mechanism being studied!,4,2,yes,Female,English,nothing that I noticed,Chrome,Windows,864,1536,9.9516,
9,condition1,Filler,,BoyFourMichaelScissors,,,2,8,four,,AOI1,AOI7,four,,43,44-22,Michael's,,Click on the boy that has four of Michael's scissors,1,4_scissors,girl,1_pencil,2_rulers,3_erasers,1_pencil,1_eraser,boy,boy,girl,,,,,,,,boy who has all of the scissors,4527,stationeries,big,,1,7,,boy,,4_scissors,38,[],38,No,It was interesting to complete the task without being fully aware of the principle or mechanism being studied!,4,2,yes,Female,English,nothing that I noticed,Chrome,Windows,864,1536,9.9516,
9,condition1,Exp,,GirlSomeAmyPlates,,,3,9,some,,AOI4,AOI10,some,,16,33-33,Amy's,,Click on the girl that has some of Amy's plates,1,2_forks,girl,3_knives,3_spoons,2_plates,1_fork,1_plate,boy,boy,girl,,,,,,,,girl who has two of the plates,4969,kitchenwares,small,,4,10,,girl,,2_plates,39,[],38,No,It was interesting to complete the task without being fully aware of the principle or mechanism being studied!,4,2,yes,Female,English,nothing that I noticed,Chrome,Windows,864,1536,9.9516,
9,condition1,Exp,,BoySomeMichaelScissors,,,1,7,some,,AOI2,AOI8,some,,12,33-33,Michael's,,Click on the boy that has some of Michael's scissors,1,3_rulers,girl,2_scissors,2_pencils,3_erasers,1_pencil,1_scissor,boy,boy,girl,,,,,,,,boy who has two of the scissors,4832,stationeries,small,,2,8,,boy,,2_scissors,40,[],38,No,It was interesting to complete the task without being fully aware of the principle or mechanism being studied!,4,2,yes,Female,English,nothing that I noticed,Chrome,Windows,864,1536,9.9516,
9,condition1,Exp,,GirlAllSusanBananas,,,4,10,all,,AOI3,AOI9,all,,4,33-33,Susan's,,Click on the girl that has all of Susan's bananas,1,2_pears,girl,3_apples,3_bananas,2_oranges,1_orange,1_pear,boy,boy,girl,,,,,,,,girl who has all of the bananas,3714,fruit,big,,3,9,,girl,,3_bananas,41,[],38,No,It was interesting to complete the task without being fully aware of the principle or mechanism being studied!,4,2,yes,Female,English,nothing that I noticed,Chrome,Windows,864,1536,9.9516,
9,condition1,Exp,,BoyThreeMichaelErasers,,,1,7,num,,AOI2,AOI8,three,,27,44-22,Michael's,,Click on the boy that has three of Michael's erasers,1,2_rulers,girl,3_erasers,2_scissors,3_pencils,1_pencil,1_eraser,boy,boy,girl,,,,,,,,boy who has three of the erasers,3941,stationeries,big,,2,8,,boy,,3_erasers,42,[],38,No,It was interesting to complete the task without being fully aware of the principle or mechanism being studied!,4,2,yes,Female,English,nothing that I noticed,Chrome,Windows,864,1536,9.9516,
9,condition1,Filler,,GirlFourAmyPlates,,,3,9,four,,AOI4,AOI10,four,,47,44-22,Amy's,,Click on the girl that has four of Amy's plates,1,1_knife,girl,3_forks,2_spoons,4_plates,1_knife,1_fork,boy,boy,girl,,,,,,,,girl who has all of the plates,5233,kitchenwares,big,,4,10,,girl,,4_plates,43,[],38,No,It was interesting to complete the task without being fully aware of the principle or mechanism being studied!,4,2,yes,Female,English,nothing that I noticed,Chrome,Windows,864,1536,9.9516,
9,condition1,Filler,,GirlOneMichaelErasers,,,4,10,one,,AOI3,AOI9,one,,41,33-33,Michael's,,Click on the girl that has one of Michael's erasers,1,3_pencils,girl,3_scissors,1_eraser,3_rulers,2_erasers,0,boy,boy,girl,,,,,,,,girl who has one of the erasers,10421,stationeries,small,,3,9,,girl,,1_eraser,44,[],38,No,It was interesting to complete the task without being fully aware of the principle or mechanism being studied!,4,2,yes,Female,English,nothing that I noticed,Chrome,Windows,864,1536,9.9516,
9,condition1,Exp,,BoySomeMichaelErasers,,,2,8,some,,AOI1,AOI7,some,,11,33-33,Michael's,,Click on the boy that has some of Michael's erasers,1,2_erasers,girl,3_pencils,2_rulers,3_scissors,1_ruler,1_eraser,boy,boy,girl,,,,,,,,boy who has two of the erasers,5035,stationeries,small,,1,7,,boy,,2_erasers,45,[],38,No,It was interesting to complete the task without being fully aware of the principle or mechanism being studied!,4,2,yes,Female,English,nothing that I noticed,Chrome,Windows,864,1536,9.9516,
9,condition1,Exp,,BoyAllAmyKnives,,,2,8,all,,AOI1,AOI7,all,,18,33-33,Amy's,,Click on the boy that has all of Amy's knives,1,3_knives,girl,2_plates,3_spoons,2_forks,1_plate,1_fork,boy,boy,girl,,,,,,,,boy who has all of the knives,8431,kitchenwares,big,,1,7,,boy,,3_knives,46,[],38,No,It was interesting to complete the task without being fully aware of the principle or mechanism being studied!,4,2,yes,Female,English,nothing that I noticed,Chrome,Windows,864,1536,9.9516,
9,condition1,Filler,,GirlFourAmyKnives,,,4,10,four,,AOI3,AOI9,four,,46,44-22,Amy's,,Click on the girl that has four of Amy's knives,1,1_spoon,girl,3_plates,4_knives,2_forks,1_spoon,1_plate,boy,boy,girl,,,,,,,,girl who has four of the forks,8792,kitchenwares,big,,3,9,,girl,,4_knives,47,[],38,No,It was interesting to complete the task without being fully aware of the principle or mechanism being studied!,4,2,yes,Female,English,nothing that I noticed,Chrome,Windows,864,1536,9.9516,
9,condition1,Exp,,BoySomeMichaelPencils,,,2,8,some,,AOI1,AOI7,some,,29,44-22,Michael's,,Click on the boy that has some of Michael's pencils,1,3_pencils,girl,2_erasers,3_scissors,2_rulers,1_pencil,1_scissor,boy,boy,girl,,,,,,,,boy who has three of the pencils,7282,stationeries,big,,1,7,,boy,,3_pencils,48,[],38,No,It was interesting to complete the task without being fully aware of the principle or mechanism being studied!,4,2,yes,Female,English,nothing that I noticed,Chrome,Windows,864,1536,9.9516,
