workerid,proliferate.condition,ExpFiller,Intro_object,Prime,Res_object,competitor1,competitor2,condition,condition1,correctAns1,correctAns2,determiner,determiner1,displayID,display_type,figure,instruction1,instruction3,list,location1,location10,location2,location3,location4,location5,location6,location7,location8,location9,object1,object2,object3,object4,practiceTrialType,practice_trial_number,prime,response,response_times,setting,size,size1,target1,target2,target_figure1,target_figure3,target_object1,target_object3,trial_number,catch_trials,subject_information.age,subject_information.asses,subject_information.comments,subject_information.education,subject_information.enjoyment,subject_information.fairprice,subject_information.gender,subject_information.language,subject_information.problems,system.Browser,system.OS,system.screenH,system.screenW,time_in_minutes,error
12,condition1,Prac,kitchware_Amy_Monday,,Residue_kitchen,4,,,num,AOI3,AOI9,,three,5,44-22,Amy,Click on the girl that has three of Amy's knives,,,2_spoons,girl,3_forks,3_knives,2_plates,1_fork,1_knife,boy,boy,girl,knives,D4_forks,D2_spoons,D4_knives,production practice,1,GirlThreeAmyknives,girl with three knives,,kitchenwares,,big,3,,girl,,3_knives,,,[],40,No,What were you trying to find out? I noticed I got tired towards the end (fatigued) and confused on the fruits.,4,2,£1,Male,English,No,Chrome,Windows,2160,3840,4.6295166666666665,
12,condition1,Prac,kitchware_Amy_Tuesday,,Slience,2,,,some,AOI4,AOI10,,some,6,33-33,Amy,Click on the girl that has some of Amy's forks,,,3_spoons,girl,2_knives,3_plates,2_forks,1_fork,1_knife,boy,boy,girl,forks,D3_forks,D3_spoons,D3_knives,production practice,2,GirlSomeAmyforks,two forks,,kitchenwares,,big,4,,girl,,2_forks,,,[],40,No,What were you trying to find out? I noticed I got tired towards the end (fatigued) and confused on the fruits.,4,2,£1,Male,English,No,Chrome,Windows,2160,3840,4.6295166666666665,
12,condition1,Exp,,BoySomeMichaelPencils,,2,8,some,,AOI1,AOI7,some,,29,44-22,Michael's,,Click on the boy that has some of Michael's pencils,1,3_pencils,girl,2_erasers,3_scissors,2_rulers,1_pencil,1_scissor,boy,boy,girl,,,,,,,,three pencils,4436,stationeries,big,,1,7,,boy,,3_pencils,1,[],40,No,What were you trying to find out? I noticed I got tired towards the end (fatigued) and confused on the fruits.,4,2,£1,Male,English,No,Chrome,Windows,2160,3840,4.6295166666666665,
12,condition1,Exp,,BoyThreeMichaelErasers,,1,7,num,,AOI2,AOI8,three,,27,44-22,Michael's,,Click on the boy that has three of Michael's erasers,1,2_rulers,girl,3_erasers,2_scissors,3_pencils,1_pencil,1_eraser,boy,boy,girl,,,,,,,,three rubbers,4646,stationeries,big,,2,8,,boy,,3_erasers,2,[],40,No,What were you trying to find out? I noticed I got tired towards the end (fatigued) and confused on the fruits.,4,2,£1,Male,English,No,Chrome,Windows,2160,3840,4.6295166666666665,
12,condition1,Exp,,BoyThreeAmyPlates,,2,8,num,,AOI1,AOI7,three,,31,44-22,Amy's,,Click on the boy that has three of Amy's plates,1,3_plates,girl,2_forks,3_spoons,2_knives,1_spoon,1_plate,boy,boy,girl,,,,,,,,three plates,3526,kitchenwares,big,,1,7,,boy,,3_plates,3,[],40,No,What were you trying to find out? I noticed I got tired towards the end (fatigued) and confused on the fruits.,4,2,£1,Male,English,No,Chrome,Windows,2160,3840,4.6295166666666665,
12,condition1,Exp,,BoyAllSusanApples,,2,8,all,,AOI1,AOI7,all,,22,44-22,Susan's,,Click on the boy that has all of Susan's apples,1,2_apples,girl,3_pears,3_oranges,2_bananas,1_orange,1_pear,boy,boy,girl,,,,,,,,two apples,4702,fruit,small,,1,7,,boy,,2_apples,4,[],40,No,What were you trying to find out? I noticed I got tired towards the end (fatigued) and confused on the fruits.,4,2,£1,Male,English,No,Chrome,Windows,2160,3840,4.6295166666666665,
12,condition1,Filler,,GirlFourMichaelPencils,,3,9,four,,AOI4,AOI10,four,,48,44-22,Michael's,,Click on the girl that has four of Michael's pencils,1,1_ruler,girl,2_erasers,3_scissors,4_pencils,1_ruler,1_scissor,boy,boy,girl,,,,,,,,four pencils,3350,stationeries,big,,4,10,,girl,,4_pencils,5,[],40,No,What were you trying to find out? I noticed I got tired towards the end (fatigued) and confused on the fruits.,4,2,£1,Male,English,No,Chrome,Windows,2160,3840,4.6295166666666665,
12,condition1,Exp,,GirlAllMichaelRulers,,3,9,all,,AOI4,AOI10,all,,8,33-33,Michael's,,Click on the girl that has all of Michael's rulers,1,2_scissors,girl,3_pencils,2_erasers,3_rulers,1_eraser,1_scissor,boy,boy,girl,,,,,,,,three rulers,3439,stationeries,big,,4,10,,girl,,3_rulers,6,[],40,No,What were you trying to find out? I noticed I got tired towards the end (fatigued) and confused on the fruits.,4,2,£1,Male,English,No,Chrome,Windows,2160,3840,4.6295166666666665,
12,condition1,Filler,,GirlFourAmyKnives,,4,10,four,,AOI3,AOI9,four,,46,44-22,Amy's,,Click on the girl that has four of Amy's knives,1,1_spoon,girl,3_plates,4_knives,2_forks,1_spoon,1_plate,boy,boy,girl,,,,,,,,four knives,3710,kitchenwares,big,,3,9,,girl,,4_knives,7,[],40,No,What were you trying to find out? I noticed I got tired towards the end (fatigued) and confused on the fruits.,4,2,£1,Male,English,No,Chrome,Windows,2160,3840,4.6295166666666665,
12,condition1,Exp,,BoyThreeAmyKnives,,1,7,num,,AOI2,AOI8,three,,14,33-33,Amy's,,Click on the boy that has three of Amy's knives,1,2_spoons,girl,3_knives,2_plates,3_forks,1_spoon,1_plate,boy,boy,girl,,,,,,,,three knives,2744,kitchenwares,big,,2,8,,boy,,3_knives,8,[],40,No,What were you trying to find out? I noticed I got tired towards the end (fatigued) and confused on the fruits.,4,2,£1,Male,English,No,Chrome,Windows,2160,3840,4.6295166666666665,
12,condition1,Exp,,BoyAllSusanPears,,1,7,all,,AOI2,AOI8,all,,3,33-33,Susan's,,Click on the boy that has all of Susan's pears,1,2_apples,girl,3_pears,2_bananas,3_oranges,1_apple,1_banana,boy,boy,girl,,,,,,,,three pears,3181,fruit,big,,2,8,,boy,,3_pears,9,[],40,No,What were you trying to find out? I noticed I got tired towards the end (fatigued) and confused on the fruits.,4,2,£1,Male,English,No,Chrome,Windows,2160,3840,4.6295166666666665,
12,condition1,Filler,,BoyOneMichaelRulers,,1,7,one,,AOI2,AOI8,one,,40,33-33,Michael's,,Click on the boy that has one of Michael's rulers,1,3_erasers,girl,1_ruler,3_pencils,3_scissors,2_scissors,0,boy,boy,girl,,,,,,,,ruler,2256,stationeries,small,,2,8,,boy,,1_ruler,10,[],40,No,What were you trying to find out? I noticed I got tired towards the end (fatigued) and confused on the fruits.,4,2,£1,Male,English,No,Chrome,Windows,2160,3840,4.6295166666666665,
12,condition1,Filler,,BoyFourSusanBananas,,1,7,four,,AOI2,AOI8,four,,44,44-22,Susan's,,Click on the boy that has four of Susan's bananas,1,1_orange,girl,4_bananas,3_pears,2_apples,1_orange,1_pear,boy,boy,girl,,,,,,,,four bananas,5733,fruit,big,,2,8,,boy,,4_bananas,11,[],40,No,What were you trying to find out? I noticed I got tired towards the end (fatigued) and confused on the fruits.,4,2,£1,Male,English,No,Chrome,Windows,2160,3840,4.6295166666666665,
12,condition1,Exp,,GirlAllMichaelErasers,,4,10,all,,AOI3,AOI9,all,,26,44-22,Michael's,,Click on the girl that has all of Michael's erasers,1,3_pencils,girl,2_scissors,2_erasers,3_rulers,1_pencil,1_ruler,boy,boy,girl,,,,,,,,two rubbers,3025,stationeries,small,,3,9,,girl,,2_erasers,12,[],40,No,What were you trying to find out? I noticed I got tired towards the end (fatigued) and confused on the fruits.,4,2,£1,Male,English,No,Chrome,Windows,2160,3840,4.6295166666666665,
12,condition1,Exp,,GirlSomeAmyKnives,,4,10,some,,AOI3,AOI9,some,,15,33-33,Amy's,,Click on the girl that has some of Amy's knives,1,2_spoons,girl,3_plates,2_knives,3_forks,1_spoon,1_knife,boy,boy,girl,,,,,,,,two knives,2645,kitchenwares,small,,3,9,,girl,,2_knives,13,[],40,No,What were you trying to find out? I noticed I got tired towards the end (fatigued) and confused on the fruits.,4,2,£1,Male,English,No,Chrome,Windows,2160,3840,4.6295166666666665,
12,condition1,Exp,,GirlTwoSusanBananas,,3,9,num,,AOI4,AOI10,two,,5,33-33,Susan's,,Click on the girl that has two of Susan's bananas,1,2_pears,girl,3_apples,3_oranges,2_bananas,1_banana,1_pear,boy,boy,girl,,,,,,,,two banans,3175,fruit,small,,4,10,,girl,,2_bananas,14,[],40,No,What were you trying to find out? I noticed I got tired towards the end (fatigued) and confused on the fruits.,4,2,£1,Male,English,No,Chrome,Windows,2160,3840,4.6295166666666665,
12,condition1,Filler,,BoyFourMichaelScissors,,2,8,four,,AOI1,AOI7,four,,43,44-22,Michael's,,Click on the boy that has four of Michael's scissors,1,4_scissors,girl,1_pencil,2_rulers,3_erasers,1_pencil,1_eraser,boy,boy,girl,,,,,,,,four scissors,6261,stationeries,big,,1,7,,boy,,4_scissors,15,[],40,No,What were you trying to find out? I noticed I got tired towards the end (fatigued) and confused on the fruits.,4,2,£1,Male,English,No,Chrome,Windows,2160,3840,4.6295166666666665,
12,condition1,Exp,,GirlSomeAmyPlates,,3,9,some,,AOI4,AOI10,some,,16,33-33,Amy's,,Click on the girl that has some of Amy's plates,1,2_forks,girl,3_knives,3_spoons,2_plates,1_fork,1_plate,boy,boy,girl,,,,,,,,two plates,2727,kitchenwares,small,,4,10,,girl,,2_plates,16,[],40,No,What were you trying to find out? I noticed I got tired towards the end (fatigued) and confused on the fruits.,4,2,£1,Male,English,No,Chrome,Windows,2160,3840,4.6295166666666665,
12,condition1,Exp,,BoySomeMichaelScissors,,1,7,some,,AOI2,AOI8,some,,12,33-33,Michael's,,Click on the boy that has some of Michael's scissors,1,3_rulers,girl,2_scissors,2_pencils,3_erasers,1_pencil,1_scissor,boy,boy,girl,,,,,,,,two scissors,5254,stationeries,small,,2,8,,boy,,2_scissors,17,[],40,No,What were you trying to find out? I noticed I got tired towards the end (fatigued) and confused on the fruits.,4,2,£1,Male,English,No,Chrome,Windows,2160,3840,4.6295166666666665,
12,condition1,Exp,,GirlAllAmySpoons,,4,10,all,,AOI3,AOI9,all,,36,44-22,Amy's,,Click on the girl that has all of Amy's spoons,1,3_plates,girl,2_knives,2_spoons,3_forks,1_plate,1_fork,boy,boy,girl,,,,,,,,two spoons,2862,kitchenwares,small,,3,9,,girl,,2_spoons,18,[],40,No,What were you trying to find out? I noticed I got tired towards the end (fatigued) and confused on the fruits.,4,2,£1,Male,English,No,Chrome,Windows,2160,3840,4.6295166666666665,
12,condition1,Exp,,BoyAllMichaelScissors,,2,8,all,,AOI1,AOI7,all,,7,33-33,Michael's,,Click on the boy that has all of Michael's scissors,1,3_scissors,girl,2_pencils,3_erasers,2_rulers,1_pencil,1_ruler,boy,boy,girl,,,,,,,,three scissors,3416,stationeries,big,,1,7,,boy,,3_scissors,19,[],40,No,What were you trying to find out? I noticed I got tired towards the end (fatigued) and confused on the fruits.,4,2,£1,Male,English,No,Chrome,Windows,2160,3840,4.6295166666666665,
12,condition1,Exp,,BoyTwoMichaelPencils,,1,7,num,,AOI2,AOI8,two,,28,44-22,Michael's,,Click on the boy that has two of Michael's pencils,1,3_scissors,girl,2_pencils,2_erasers,3_rulers,1_ruler,1_scissor,boy,boy,girl,,,,,,,,two pencils,2622,stationeries,small,,2,8,,boy,,2_pencils,20,[],40,No,What were you trying to find out? I noticed I got tired towards the end (fatigued) and confused on the fruits.,4,2,£1,Male,English,No,Chrome,Windows,2160,3840,4.6295166666666665,
12,condition1,Exp,,BoySomeSusanPears,,2,8,some,,AOI1,AOI7,some,,1,33-33,Susan's,,Click on the boy that has some of Susan's pears,1,2_pears,girl,3_bananas,2_apples,3_oranges,1_apple,1_pear,boy,boy,girl,,,,,,,,two pears,4654,fruit,small,,1,7,,boy,,2_pears,21,[],40,No,What were you trying to find out? I noticed I got tired towards the end (fatigued) and confused on the fruits.,4,2,£1,Male,English,No,Chrome,Windows,2160,3840,4.6295166666666665,
12,condition1,Filler,,GirlOneMichaelErasers,,4,10,one,,AOI3,AOI9,one,,41,33-33,Michael's,,Click on the girl that has one of Michael's erasers,1,3_pencils,girl,3_scissors,1_eraser,3_rulers,2_erasers,0,boy,boy,girl,,,,,,,,rubber,2025,stationeries,small,,3,9,,girl,,1_eraser,22,[],40,No,What were you trying to find out? I noticed I got tired towards the end (fatigued) and confused on the fruits.,4,2,£1,Male,English,No,Chrome,Windows,2160,3840,4.6295166666666665,
12,condition1,Exp,,BoyAllAmyForks,,1,7,all,,AOI2,AOI8,all,,17,33-33,Amy's,,Click on the boy that has all of Amy's forks,1,2_spoons,girl,3_forks,2_knives,3_plates,1_spoon,1_knife,boy,boy,girl,,,,,,,,three forks,4037,kitchenwares,big,,2,8,,boy,,3_forks,23,[],40,No,What were you trying to find out? I noticed I got tired towards the end (fatigued) and confused on the fruits.,4,2,£1,Male,English,No,Chrome,Windows,2160,3840,4.6295166666666665,
12,condition1,Exp,,BoySomeAmySpoons,,1,7,some,,AOI2,AOI8,some,,33,44-22,Amy's,,Click on the boy that has some of Amy's spoons,1,2_plates,girl,3_spoons,2_forks,3_knives,1_spoon,1_knife,boy,boy,girl,,,,,,,,three spoons,3598,kitchenwares,big,,2,8,,boy,,3_spoons,24,[],40,No,What were you trying to find out? I noticed I got tired towards the end (fatigued) and confused on the fruits.,4,2,£1,Male,English,No,Chrome,Windows,2160,3840,4.6295166666666665,
12,condition1,Exp,,GirlSomeMichaelRulers,,3,9,some,,AOI4,AOI10,some,,30,44-22,Michael's,,Click on the girl that has some of Michael's rulers,1,3_erasers,girl,2_pencils,2_scissors,3_rulers,1_ruler,1_eraser,boy,boy,girl,,,,,,,,four rulers,5159,stationeries,big,,4,10,,girl,,3_rulers,25,[],40,No,What were you trying to find out? I noticed I got tired towards the end (fatigued) and confused on the fruits.,4,2,£1,Male,English,No,Chrome,Windows,2160,3840,4.6295166666666665,
12,condition1,Filler,,GirlOneSusanPears,,3,9,one,,AOI4,AOI10,one,,42,33-33,Susan's,,Click on the girl that has one of Susan's pears,1,3_bananas,girl,3_oranges,3_apples,1_pear,2_pears,0,boy,boy,girl,,,,,,,,pear,1894,fruit,small,,4,10,,girl,,1_pear,26,[],40,No,What were you trying to find out? I noticed I got tired towards the end (fatigued) and confused on the fruits.,4,2,£1,Male,English,No,Chrome,Windows,2160,3840,4.6295166666666665,
12,condition1,Filler,,BoyOneAmySpoons,,1,7,one,,AOI2,AOI8,one,,39,33-33,Amy's,,Click on the boy that has one of Amy's spoons,1,3_forks,girl,1_spoon,3_plates,3_knives,2_spoons,0,boy,boy,girl,,,,,,,,spoon,2423,kitchenwares,small,,2,8,,boy,,1_spoon,27,[],40,No,What were you trying to find out? I noticed I got tired towards the end (fatigued) and confused on the fruits.,4,2,£1,Male,English,No,Chrome,Windows,2160,3840,4.6295166666666665,
12,condition1,Exp,,BoyAllSusanOranges,,1,7,all,,AOI2,AOI8,all,,21,44-22,Susan's,,Click on the boy that has all of Susan's oranges,1,3_bananas,girl,2_oranges,3_apples,2_pears,1_apple,1_banana,boy,boy,girl,,,,,,,,two oranges,3766,fruit,small,,2,8,,boy,,2_oranges,28,[],40,No,What were you trying to find out? I noticed I got tired towards the end (fatigued) and confused on the fruits.,4,2,£1,Male,English,No,Chrome,Windows,2160,3840,4.6295166666666665,
12,condition1,Exp,,GirlSomeSusanBananas,,3,9,some,,AOI4,AOI10,some,,19,44-22,Susan's,,Click on the girl that has some of Susan's bananas,1,3_oranges,girl,2_apples,2_pears,3_bananas,1_banana,1_orange,boy,boy,girl,,,,,,,,three banans,6086,fruit,big,,4,10,,girl,,3_bananas,29,[],40,No,What were you trying to find out? I noticed I got tired towards the end (fatigued) and confused on the fruits.,4,2,£1,Male,English,No,Chrome,Windows,2160,3840,4.6295166666666665,
12,condition1,Exp,,BoySomeSusanOranges,,1,7,some,,AOI2,AOI8,some,,2,33-33,Susan's,,Click on the boy that has some of Susan's oranges,1,3_apples,girl,2_oranges,2_bananas,3_pears,1_banana,1_orange,boy,boy,girl,,,,,,,,two oranges,3966,fruit,small,,2,8,,boy,,2_oranges,30,[],40,No,What were you trying to find out? I noticed I got tired towards the end (fatigued) and confused on the fruits.,4,2,£1,Male,English,No,Chrome,Windows,2160,3840,4.6295166666666665,
12,condition1,Exp,,GirlAllMichaelPencils,,3,9,all,,AOI4,AOI10,all,,25,44-22,Michael's,,Click on the girl that has all of Michael's pencils,1,3_erasers,girl,2_rulers,3_scissors,2_pencils,1_eraser,1_scissor,boy,boy,girl,,,,,,,,two pencils,4127,stationeries,small,,4,10,,girl,,2_pencils,31,[],40,No,What were you trying to find out? I noticed I got tired towards the end (fatigued) and confused on the fruits.,4,2,£1,Male,English,No,Chrome,Windows,2160,3840,4.6295166666666665,
12,condition1,Filler,,GirlFourSusanOranges,,4,10,four,,AOI3,AOI9,four,,45,44-22,Susan's,,Click on the girl that has four of Susan's oranges,1,2_pears,girl,3_apples,4_oranges,1_banana,1_banana,1_apple,boy,boy,girl,,,,,,,,four oranges,2703,fruit,big,,3,9,,girl,,4_oranges,32,[],40,No,What were you trying to find out? I noticed I got tired towards the end (fatigued) and confused on the fruits.,4,2,£1,Male,English,No,Chrome,Windows,2160,3840,4.6295166666666665,
12,condition1,Exp,,GirlTwoMichaelRulers,,4,10,num,,AOI3,AOI9,two,,9,33-33,Michael's,,Click on the girl that has two of Michael's rulers,1,3_pencils,girl,2_scissors,2_rulers,3_erasers,1_ruler,1_scissor,boy,boy,girl,,,,,,,,two rulers,5102,stationeries,small,,3,9,,girl,,2_rulers,33,[],40,No,What were you trying to find out? I noticed I got tired towards the end (fatigued) and confused on the fruits.,4,2,£1,Male,English,No,Chrome,Windows,2160,3840,4.6295166666666665,
12,condition1,Exp,,GirlAllSusanBananas,,4,10,all,,AOI3,AOI9,all,,4,33-33,Susan's,,Click on the girl that has all of Susan's bananas,1,2_pears,girl,3_apples,3_bananas,2_oranges,1_orange,1_pear,boy,boy,girl,,,,,,,,three banans,5845,fruit,big,,3,9,,girl,,3_bananas,34,[],40,No,What were you trying to find out? I noticed I got tired towards the end (fatigued) and confused on the fruits.,4,2,£1,Male,English,No,Chrome,Windows,2160,3840,4.6295166666666665,
12,condition1,Filler,,BoyOneSusanApples,,2,8,one,,AOI1,AOI7,one,,37,33-33,Susan's,,Click on the boy that has one of Susan's apples,1,1_apple,girl,3_pears,3_bananas,3_oranges,2_apples,0,boy,boy,girl,,,,,,,,apple,2376,fruit,small,,1,7,,boy,,1_apple,35,[],40,No,What were you trying to find out? I noticed I got tired towards the end (fatigued) and confused on the fruits.,4,2,£1,Male,English,No,Chrome,Windows,2160,3840,4.6295166666666665,
12,condition1,Exp,,GirlThreeSusanOranges,,4,10,num,,AOI3,AOI9,three,,23,44-22,Susan's,,Click on the girl that has three of Susan's oranges,1,3_apples,girl,2_pears,3_oranges,2_bananas,1_apple,1_orange,boy,boy,girl,,,,,,,,two oranges,2958,fruit,big,,3,9,,girl,,3_oranges,36,[],40,No,What were you trying to find out? I noticed I got tired towards the end (fatigued) and confused on the fruits.,4,2,£1,Male,English,No,Chrome,Windows,2160,3840,4.6295166666666665,
12,condition1,Filler,,BoyOneAmyPlates,,2,8,one,,AOI1,AOI7,one,,38,33-33,Amy's,,Click on the boy that has one of Amy's plates,1,1_plate,girl,3_knives,3_forks,3_spoons,2_plates,0,boy,boy,girl,,,,,,,,plate,2192,kitchenwares,small,,1,7,,boy,,1_plate,37,[],40,No,What were you trying to find out? I noticed I got tired towards the end (fatigued) and confused on the fruits.,4,2,£1,Male,English,No,Chrome,Windows,2160,3840,4.6295166666666665,
12,condition1,Exp,,GirlSomeSusanApples,,4,10,some,,AOI3,AOI9,some,,20,44-22,Susan's,,Click on the girl that has some of Susan's apples,1,3_pears,girl,2_bananas,3_apples,2_oranges,1_apple,1_pear,boy,boy,girl,,,,,,,,three apples,4086,fruit,big,,3,9,,girl,,3_apples,38,[],40,No,What were you trying to find out? I noticed I got tired towards the end (fatigued) and confused on the fruits.,4,2,£1,Male,English,No,Chrome,Windows,2160,3840,4.6295166666666665,
12,condition1,Exp,,GirlSomeAmyForks,,4,10,some,,AOI3,AOI9,some,,34,44-22,Amy's,,Click on the girl that has some of Amy's forks,1,2_spoons,girl,3_plates,3_forks,2_knives,1_fork,1_plate,boy,boy,girl,,,,,,,,three forks,4367,kitchenwares,big,,3,9,,girl,,3_forks,39,[],40,No,What were you trying to find out? I noticed I got tired towards the end (fatigued) and confused on the fruits.,4,2,£1,Male,English,No,Chrome,Windows,2160,3840,4.6295166666666665,
12,condition1,Exp,,GirlThreeMichaelScissors,,4,10,num,,AOI3,AOI9,three,,10,33-33,Michael's,,Click on the girl that has three of Michael's scissors,1,3_rulers,girl,2_erasers,3_scissors,2_pencils,1_pencil,1_eraser,boy,boy,girl,,,,,,,,three scissors,4545,stationeries,big,,3,9,,girl,,3_scissors,40,[],40,No,What were you trying to find out? I noticed I got tired towards the end (fatigued) and confused on the fruits.,4,2,£1,Male,English,No,Chrome,Windows,2160,3840,4.6295166666666665,
12,condition1,Exp,,BoyTwoAmySpoons,,2,8,num,,AOI1,AOI7,two,,32,44-22,Amy's,,Click on the boy that has two of Amy's spoons,1,2_spoons,girl,3_knives,3_forks,2_plates,1_fork,1_knife,boy,boy,girl,,,,,,,,two spoons,2876,kitchenwares,small,,1,7,,boy,,2_spoons,41,[],40,No,What were you trying to find out? I noticed I got tired towards the end (fatigued) and confused on the fruits.,4,2,£1,Male,English,No,Chrome,Windows,2160,3840,4.6295166666666665,
12,condition1,Exp,,BoyTwoSusanApples,,2,8,num,,AOI1,AOI7,two,,24,44-22,Susan's,,Click on the boy that has two of Susan's apples,1,2_apples,girl,3_pears,3_bananas,2_oranges,1_banana,1_pear,boy,boy,girl,,,,,,,,two apples,2487,fruit,small,,1,7,,boy,,2_apples,42,[],40,No,What were you trying to find out? I noticed I got tired towards the end (fatigued) and confused on the fruits.,4,2,£1,Male,English,No,Chrome,Windows,2160,3840,4.6295166666666665,
12,condition1,Exp,,BoySomeMichaelErasers,,2,8,some,,AOI1,AOI7,some,,11,33-33,Michael's,,Click on the boy that has some of Michael's erasers,1,2_erasers,girl,3_pencils,2_rulers,3_scissors,1_ruler,1_eraser,boy,boy,girl,,,,,,,,two rubbers,2838,stationeries,small,,1,7,,boy,,2_erasers,43,[],40,No,What were you trying to find out? I noticed I got tired towards the end (fatigued) and confused on the fruits.,4,2,£1,Male,English,No,Chrome,Windows,2160,3840,4.6295166666666665,
12,condition1,Exp,,GirlTwoAmyForks,,3,9,num,,AOI4,AOI10,two,,13,33-33,Amy's,,Click on the girl that has two of Amy's forks,1,2_knives,girl,3_spoons,3_plates,2_forks,1_fork,1_knife,boy,boy,girl,,,,,,,,two forks,3375,kitchenwares,small,,4,10,,girl,,2_forks,44,[],40,No,What were you trying to find out? I noticed I got tired towards the end (fatigued) and confused on the fruits.,4,2,£1,Male,English,No,Chrome,Windows,2160,3840,4.6295166666666665,
12,condition1,Filler,,GirlFourAmyPlates,,3,9,four,,AOI4,AOI10,four,,47,44-22,Amy's,,Click on the girl that has four of Amy's plates,1,1_knife,girl,3_forks,2_spoons,4_plates,1_knife,1_fork,boy,boy,girl,,,,,,,,four plate,3208,kitchenwares,big,,4,10,,girl,,4_plates,45,[],40,No,What were you trying to find out? I noticed I got tired towards the end (fatigued) and confused on the fruits.,4,2,£1,Male,English,No,Chrome,Windows,2160,3840,4.6295166666666665,
12,condition1,Exp,,GirlThreeSusanPears,,3,9,num,,AOI4,AOI10,three,,6,33-33,Susan's,,Click on the girl that has three of Susan's pears,1,2_oranges,girl,3_bananas,2_apples,3_pears,1_apple,1_orange,boy,boy,girl,,,,,,,,three pears,3782,fruit,big,,4,10,,girl,,3_pears,46,[],40,No,What were you trying to find out? I noticed I got tired towards the end (fatigued) and confused on the fruits.,4,2,£1,Male,English,No,Chrome,Windows,2160,3840,4.6295166666666665,
12,condition1,Exp,,BoyAllAmyKnives,,2,8,all,,AOI1,AOI7,all,,18,33-33,Amy's,,Click on the boy that has all of Amy's knives,1,3_knives,girl,2_plates,3_spoons,2_forks,1_plate,1_fork,boy,boy,girl,,,,,,,,three knives,6173,kitchenwares,big,,1,7,,boy,,3_knives,47,[],40,No,What were you trying to find out? I noticed I got tired towards the end (fatigued) and confused on the fruits.,4,2,£1,Male,English,No,Chrome,Windows,2160,3840,4.6295166666666665,
12,condition1,Exp,,GirlAllAmyPlates,,3,9,all,,AOI4,AOI10,all,,35,44-22,Amy's,,Click on the girl that has all of Amy's plates,1,3_spoons,girl,2_forks,3_knives,2_plates,1_spoon,1_knife,boy,boy,girl,,,,,,,,two plates,1959,kitchenwares,small,,4,10,,girl,,2_plates,48,[],40,No,What were you trying to find out? I noticed I got tired towards the end (fatigued) and confused on the fruits.,4,2,£1,Male,English,No,Chrome,Windows,2160,3840,4.6295166666666665,
14,condition1,Prac,kitchware_Amy_Monday,,Residue_kitchen,4,,,num,AOI3,AOI9,,three,5,44-22,Amy,Click on the girl that has three of Amy's knives,,,2_spoons,girl,3_forks,3_knives,2_plates,1_fork,1_knife,boy,boy,girl,knives,D4_forks,D2_spoons,D4_knives,production practice,1,GirlThreeAmyknives,girl with three knives,,kitchenwares,,big,3,,girl,,3_knives,,,[],30,Yes,,4,2,,Female,English,No,Chrome,Mac,800,1280,9.516283333333334,
14,condition1,Prac,kitchware_Amy_Tuesday,,Slience,2,,,some,AOI4,AOI10,,some,6,33-33,Amy,Click on the girl that has some of Amy's forks,,,3_spoons,girl,2_knives,3_plates,2_forks,1_fork,1_knife,boy,boy,girl,forks,D3_forks,D3_spoons,D3_knives,production practice,2,GirlSomeAmyforks,girl with two forks,,kitchenwares,,big,4,,girl,,2_forks,,,[],30,Yes,,4,2,,Female,English,No,Chrome,Mac,800,1280,9.516283333333334,
14,condition1,Exp,,BoySomeMichaelPencils,,2,8,some,,AOI1,AOI7,some,,29,44-22,Michael's,,Click on the boy that has some of Michael's pencils,1,3_pencils,girl,2_erasers,3_scissors,2_rulers,1_pencil,1_scissor,boy,boy,girl,,,,,,,,boy with three pencils,9017,stationeries,big,,1,7,,boy,,3_pencils,1,[],30,Yes,,4,2,,Female,English,No,Chrome,Mac,800,1280,9.516283333333334,
14,condition1,Filler,,BoyOneSusanApples,,2,8,one,,AOI1,AOI7,one,,37,33-33,Susan's,,Click on the boy that has one of Susan's apples,1,1_apple,girl,3_pears,3_bananas,3_oranges,2_apples,0,boy,boy,girl,,,,,,,,boy with an apple,4856,fruit,small,,1,7,,boy,,1_apple,2,[],30,Yes,,4,2,,Female,English,No,Chrome,Mac,800,1280,9.516283333333334,
14,condition1,Exp,,BoyTwoMichaelPencils,,1,7,num,,AOI2,AOI8,two,,28,44-22,Michael's,,Click on the boy that has two of Michael's pencils,1,3_scissors,girl,2_pencils,2_erasers,3_rulers,1_ruler,1_scissor,boy,boy,girl,,,,,,,,boy with two pencils,5942,stationeries,small,,2,8,,boy,,2_pencils,3,[],30,Yes,,4,2,,Female,English,No,Chrome,Mac,800,1280,9.516283333333334,
14,condition1,Exp,,BoyTwoSusanApples,,2,8,num,,AOI1,AOI7,two,,24,44-22,Susan's,,Click on the boy that has two of Susan's apples,1,2_apples,girl,3_pears,3_bananas,2_oranges,1_banana,1_pear,boy,boy,girl,,,,,,,,boy with two apples,6653,fruit,small,,1,7,,boy,,2_apples,4,[],30,Yes,,4,2,,Female,English,No,Chrome,Mac,800,1280,9.516283333333334,
14,condition1,Exp,,GirlAllAmyPlates,,3,9,all,,AOI4,AOI10,all,,35,44-22,Amy's,,Click on the girl that has all of Amy's plates,1,3_spoons,girl,2_forks,3_knives,2_plates,1_spoon,1_knife,boy,boy,girl,,,,,,,,girls with two plates,5794,kitchenwares,small,,4,10,,girl,,2_plates,5,[],30,Yes,,4,2,,Female,English,No,Chrome,Mac,800,1280,9.516283333333334,
14,condition1,Exp,,BoyAllMichaelScissors,,2,8,all,,AOI1,AOI7,all,,7,33-33,Michael's,,Click on the boy that has all of Michael's scissors,1,3_scissors,girl,2_pencils,3_erasers,2_rulers,1_pencil,1_ruler,boy,boy,girl,,,,,,,,boy with three scissors,5041,stationeries,big,,1,7,,boy,,3_scissors,6,[],30,Yes,,4,2,,Female,English,No,Chrome,Mac,800,1280,9.516283333333334,
14,condition1,Exp,,GirlSomeSusanApples,,4,10,some,,AOI3,AOI9,some,,20,44-22,Susan's,,Click on the girl that has some of Susan's apples,1,3_pears,girl,2_bananas,3_apples,2_oranges,1_apple,1_pear,boy,boy,girl,,,,,,,,girl with three apples,7363,fruit,big,,3,9,,girl,,3_apples,7,[],30,Yes,,4,2,,Female,English,No,Chrome,Mac,800,1280,9.516283333333334,
14,condition1,Exp,,BoyAllSusanPears,,1,7,all,,AOI2,AOI8,all,,3,33-33,Susan's,,Click on the boy that has all of Susan's pears,1,2_apples,girl,3_pears,2_bananas,3_oranges,1_apple,1_banana,boy,boy,girl,,,,,,,,boy with three pears,11364,fruit,big,,2,8,,boy,,3_pears,8,[],30,Yes,,4,2,,Female,English,No,Chrome,Mac,800,1280,9.516283333333334,
14,condition1,Exp,,GirlSomeMichaelRulers,,3,9,some,,AOI4,AOI10,some,,30,44-22,Michael's,,Click on the girl that has some of Michael's rulers,1,3_erasers,girl,2_pencils,2_scissors,3_rulers,1_ruler,1_eraser,boy,boy,girl,,,,,,,,girl with three rulers,55187,stationeries,big,,4,10,,girl,,3_rulers,9,[],30,Yes,,4,2,,Female,English,No,Chrome,Mac,800,1280,9.516283333333334,
14,condition1,Exp,,GirlTwoMichaelRulers,,4,10,num,,AOI3,AOI9,two,,9,33-33,Michael's,,Click on the girl that has two of Michael's rulers,1,3_pencils,girl,2_scissors,2_rulers,3_erasers,1_ruler,1_scissor,boy,boy,girl,,,,,,,,girl with two rulers,4991,stationeries,small,,3,9,,girl,,2_rulers,10,[],30,Yes,,4,2,,Female,English,No,Chrome,Mac,800,1280,9.516283333333334,
14,condition1,Exp,,BoySomeSusanOranges,,1,7,some,,AOI2,AOI8,some,,2,33-33,Susan's,,Click on the boy that has some of Susan's oranges,1,3_apples,girl,2_oranges,2_bananas,3_pears,1_banana,1_orange,boy,boy,girl,,,,,,,,boy with two oranges,7498,fruit,small,,2,8,,boy,,2_oranges,11,[],30,Yes,,4,2,,Female,English,No,Chrome,Mac,800,1280,9.516283333333334,
14,condition1,Filler,,GirlFourSusanOranges,,4,10,four,,AOI3,AOI9,four,,45,44-22,Susan's,,Click on the girl that has four of Susan's oranges,1,2_pears,girl,3_apples,4_oranges,1_banana,1_banana,1_apple,boy,boy,girl,,,,,,,,girl with four oranges,8770,fruit,big,,3,9,,girl,,4_oranges,12,[],30,Yes,,4,2,,Female,English,No,Chrome,Mac,800,1280,9.516283333333334,
14,condition1,Exp,,GirlAllMichaelErasers,,4,10,all,,AOI3,AOI9,all,,26,44-22,Michael's,,Click on the girl that has all of Michael's erasers,1,3_pencils,girl,2_scissors,2_erasers,3_rulers,1_pencil,1_ruler,boy,boy,girl,,,,,,,,girl with two rubbers,10224,stationeries,small,,3,9,,girl,,2_erasers,13,[],30,Yes,,4,2,,Female,English,No,Chrome,Mac,800,1280,9.516283333333334,
14,condition1,Exp,,BoySomeMichaelScissors,,1,7,some,,AOI2,AOI8,some,,12,33-33,Michael's,,Click on the boy that has some of Michael's scissors,1,3_rulers,girl,2_scissors,2_pencils,3_erasers,1_pencil,1_scissor,boy,boy,girl,,,,,,,,girl with two pairs of scissors,16123,stationeries,small,,2,8,,boy,,2_scissors,14,[],30,Yes,,4,2,,Female,English,No,Chrome,Mac,800,1280,9.516283333333334,
14,condition1,Filler,,BoyOneMichaelRulers,,1,7,one,,AOI2,AOI8,one,,40,33-33,Michael's,,Click on the boy that has one of Michael's rulers,1,3_erasers,girl,1_ruler,3_pencils,3_scissors,2_scissors,0,boy,boy,girl,,,,,,,,boy with one ruler,10604,stationeries,small,,2,8,,boy,,1_ruler,15,[],30,Yes,,4,2,,Female,English,No,Chrome,Mac,800,1280,9.516283333333334,
14,condition1,Exp,,BoyThreeAmyPlates,,2,8,num,,AOI1,AOI7,three,,31,44-22,Amy's,,Click on the boy that has three of Amy's plates,1,3_plates,girl,2_forks,3_spoons,2_knives,1_spoon,1_plate,boy,boy,girl,,,,,,,,boy with three plates,10454,kitchenwares,big,,1,7,,boy,,3_plates,16,[],30,Yes,,4,2,,Female,English,No,Chrome,Mac,800,1280,9.516283333333334,
14,condition1,Exp,,GirlTwoAmyForks,,3,9,num,,AOI4,AOI10,two,,13,33-33,Amy's,,Click on the girl that has two of Amy's forks,1,2_knives,girl,3_spoons,3_plates,2_forks,1_fork,1_knife,boy,boy,girl,,,,,,,,girl with two forks,11480,kitchenwares,small,,4,10,,girl,,2_forks,17,[],30,Yes,,4,2,,Female,English,No,Chrome,Mac,800,1280,9.516283333333334,
14,condition1,Exp,,BoyAllAmyKnives,,2,8,all,,AOI1,AOI7,all,,18,33-33,Amy's,,Click on the boy that has all of Amy's knives,1,3_knives,girl,2_plates,3_spoons,2_forks,1_plate,1_fork,boy,boy,girl,,,,,,,,boy with three knives,7136,kitchenwares,big,,1,7,,boy,,3_knives,18,[],30,Yes,,4,2,,Female,English,No,Chrome,Mac,800,1280,9.516283333333334,
14,condition1,Filler,,BoyFourMichaelScissors,,2,8,four,,AOI1,AOI7,four,,43,44-22,Michael's,,Click on the boy that has four of Michael's scissors,1,4_scissors,girl,1_pencil,2_rulers,3_erasers,1_pencil,1_eraser,boy,boy,girl,,,,,,,,boy with four pair of scissors,11202,stationeries,big,,1,7,,boy,,4_scissors,19,[],30,Yes,,4,2,,Female,English,No,Chrome,Mac,800,1280,9.516283333333334,
14,condition1,Exp,,GirlAllMichaelRulers,,3,9,all,,AOI4,AOI10,all,,8,33-33,Michael's,,Click on the girl that has all of Michael's rulers,1,2_scissors,girl,3_pencils,2_erasers,3_rulers,1_eraser,1_scissor,boy,boy,girl,,,,,,,,girl with three rulers,11312,stationeries,big,,4,10,,girl,,3_rulers,20,[],30,Yes,,4,2,,Female,English,No,Chrome,Mac,800,1280,9.516283333333334,
14,condition1,Exp,,GirlAllSusanBananas,,4,10,all,,AOI3,AOI9,all,,4,33-33,Susan's,,Click on the girl that has all of Susan's bananas,1,2_pears,girl,3_apples,3_bananas,2_oranges,1_orange,1_pear,boy,boy,girl,,,,,,,,girl with three bananas,11031,fruit,big,,3,9,,girl,,3_bananas,21,[],30,Yes,,4,2,,Female,English,No,Chrome,Mac,800,1280,9.516283333333334,
14,condition1,Exp,,BoySomeSusanPears,,2,8,some,,AOI1,AOI7,some,,1,33-33,Susan's,,Click on the boy that has some of Susan's pears,1,2_pears,girl,3_bananas,2_apples,3_oranges,1_apple,1_pear,boy,boy,girl,,,,,,,,boy with two pears,7146,fruit,small,,1,7,,boy,,2_pears,22,[],30,Yes,,4,2,,Female,English,No,Chrome,Mac,800,1280,9.516283333333334,
14,condition1,Exp,,GirlSomeSusanBananas,,3,9,some,,AOI4,AOI10,some,,19,44-22,Susan's,,Click on the girl that has some of Susan's bananas,1,3_oranges,girl,2_apples,2_pears,3_bananas,1_banana,1_orange,boy,boy,girl,,,,,,,,girl with three bananas,16728,fruit,big,,4,10,,girl,,3_bananas,23,[],30,Yes,,4,2,,Female,English,No,Chrome,Mac,800,1280,9.516283333333334,
14,condition1,Exp,,BoyThreeMichaelErasers,,1,7,num,,AOI2,AOI8,three,,27,44-22,Michael's,,Click on the boy that has three of Michael's erasers,1,2_rulers,girl,3_erasers,2_scissors,3_pencils,1_pencil,1_eraser,boy,boy,girl,,,,,,,,boy with three rubbers,6930,stationeries,big,,2,8,,boy,,3_erasers,24,[],30,Yes,,4,2,,Female,English,No,Chrome,Mac,800,1280,9.516283333333334,
14,condition1,Exp,,GirlSomeAmyKnives,,4,10,some,,AOI3,AOI9,some,,15,33-33,Amy's,,Click on the girl that has some of Amy's knives,1,2_spoons,girl,3_plates,2_knives,3_forks,1_spoon,1_knife,boy,boy,girl,,,,,,,,girl with two knives,7539,kitchenwares,small,,3,9,,girl,,2_knives,25,[],30,Yes,,4,2,,Female,English,No,Chrome,Mac,800,1280,9.516283333333334,
14,condition1,Exp,,BoyAllAmyForks,,1,7,all,,AOI2,AOI8,all,,17,33-33,Amy's,,Click on the boy that has all of Amy's forks,1,2_spoons,girl,3_forks,2_knives,3_plates,1_spoon,1_knife,boy,boy,girl,,,,,,,,boy with three forks,8894,kitchenwares,big,,2,8,,boy,,3_forks,26,[],30,Yes,,4,2,,Female,English,No,Chrome,Mac,800,1280,9.516283333333334,
14,condition1,Filler,,GirlOneMichaelErasers,,4,10,one,,AOI3,AOI9,one,,41,33-33,Michael's,,Click on the girl that has one of Michael's erasers,1,3_pencils,girl,3_scissors,1_eraser,3_rulers,2_erasers,0,boy,boy,girl,,,,,,,,girl with a rubber,7671,stationeries,small,,3,9,,girl,,1_eraser,27,[],30,Yes,,4,2,,Female,English,No,Chrome,Mac,800,1280,9.516283333333334,
14,condition1,Exp,,BoyTwoAmySpoons,,2,8,num,,AOI1,AOI7,two,,32,44-22,Amy's,,Click on the boy that has two of Amy's spoons,1,2_spoons,girl,3_knives,3_forks,2_plates,1_fork,1_knife,boy,boy,girl,,,,,,,,boy with two spoons,12502,kitchenwares,small,,1,7,,boy,,2_spoons,28,[],30,Yes,,4,2,,Female,English,No,Chrome,Mac,800,1280,9.516283333333334,
14,condition1,Exp,,BoyAllSusanApples,,2,8,all,,AOI1,AOI7,all,,22,44-22,Susan's,,Click on the boy that has all of Susan's apples,1,2_apples,girl,3_pears,3_oranges,2_bananas,1_orange,1_pear,boy,boy,girl,,,,,,,,boy with two apples,8743,fruit,small,,1,7,,boy,,2_apples,29,[],30,Yes,,4,2,,Female,English,No,Chrome,Mac,800,1280,9.516283333333334,
14,condition1,Exp,,GirlThreeSusanOranges,,4,10,num,,AOI3,AOI9,three,,23,44-22,Susan's,,Click on the girl that has three of Susan's oranges,1,3_apples,girl,2_pears,3_oranges,2_bananas,1_apple,1_orange,boy,boy,girl,,,,,,,,girl with three oranges,13736,fruit,big,,3,9,,girl,,3_oranges,30,[],30,Yes,,4,2,,Female,English,No,Chrome,Mac,800,1280,9.516283333333334,
14,condition1,Filler,,GirlFourMichaelPencils,,3,9,four,,AOI4,AOI10,four,,48,44-22,Michael's,,Click on the girl that has four of Michael's pencils,1,1_ruler,girl,2_erasers,3_scissors,4_pencils,1_ruler,1_scissor,boy,boy,girl,,,,,,,,girl with four pencils,19358,stationeries,big,,4,10,,girl,,4_pencils,31,[],30,Yes,,4,2,,Female,English,No,Chrome,Mac,800,1280,9.516283333333334,
14,condition1,Filler,,GirlFourAmyPlates,,3,9,four,,AOI4,AOI10,four,,47,44-22,Amy's,,Click on the girl that has four of Amy's plates,1,1_knife,girl,3_forks,2_spoons,4_plates,1_knife,1_fork,boy,boy,girl,,,,,,,,girl with four plates,7558,kitchenwares,big,,4,10,,girl,,4_plates,32,[],30,Yes,,4,2,,Female,English,No,Chrome,Mac,800,1280,9.516283333333334,
14,condition1,Exp,,GirlAllAmySpoons,,4,10,all,,AOI3,AOI9,all,,36,44-22,Amy's,,Click on the girl that has all of Amy's spoons,1,3_plates,girl,2_knives,2_spoons,3_forks,1_plate,1_fork,boy,boy,girl,,,,,,,,girl with two spoons,8876,kitchenwares,small,,3,9,,girl,,2_spoons,33,[],30,Yes,,4,2,,Female,English,No,Chrome,Mac,800,1280,9.516283333333334,
14,condition1,Filler,,GirlFourAmyKnives,,4,10,four,,AOI3,AOI9,four,,46,44-22,Amy's,,Click on the girl that has four of Amy's knives,1,1_spoon,girl,3_plates,4_knives,2_forks,1_spoon,1_plate,boy,boy,girl,,,,,,,,girl with four knives,6676,kitchenwares,big,,3,9,,girl,,4_knives,34,[],30,Yes,,4,2,,Female,English,No,Chrome,Mac,800,1280,9.516283333333334,
14,condition1,Exp,,BoySomeAmySpoons,,1,7,some,,AOI2,AOI8,some,,33,44-22,Amy's,,Click on the boy that has some of Amy's spoons,1,2_plates,girl,3_spoons,2_forks,3_knives,1_spoon,1_knife,boy,boy,girl,,,,,,,,boy with three spoons,6478,kitchenwares,big,,2,8,,boy,,3_spoons,35,[],30,Yes,,4,2,,Female,English,No,Chrome,Mac,800,1280,9.516283333333334,
14,condition1,Exp,,GirlAllMichaelPencils,,3,9,all,,AOI4,AOI10,all,,25,44-22,Michael's,,Click on the girl that has all of Michael's pencils,1,3_erasers,girl,2_rulers,3_scissors,2_pencils,1_eraser,1_scissor,boy,boy,girl,,,,,,,,girl with two pencils ,8313,stationeries,small,,4,10,,girl,,2_pencils,36,[],30,Yes,,4,2,,Female,English,No,Chrome,Mac,800,1280,9.516283333333334,
14,condition1,Exp,,BoyAllSusanOranges,,1,7,all,,AOI2,AOI8,all,,21,44-22,Susan's,,Click on the boy that has all of Susan's oranges,1,3_bananas,girl,2_oranges,3_apples,2_pears,1_apple,1_banana,boy,boy,girl,,,,,,,,boy with two oranges,6781,fruit,small,,2,8,,boy,,2_oranges,37,[],30,Yes,,4,2,,Female,English,No,Chrome,Mac,800,1280,9.516283333333334,
14,condition1,Filler,,GirlOneSusanPears,,3,9,one,,AOI4,AOI10,one,,42,33-33,Susan's,,Click on the girl that has one of Susan's pears,1,3_bananas,girl,3_oranges,3_apples,1_pear,2_pears,0,boy,boy,girl,,,,,,,,girl with a pear,3785,fruit,small,,4,10,,girl,,1_pear,38,[],30,Yes,,4,2,,Female,English,No,Chrome,Mac,800,1280,9.516283333333334,
14,condition1,Exp,,GirlThreeMichaelScissors,,4,10,num,,AOI3,AOI9,three,,10,33-33,Michael's,,Click on the girl that has three of Michael's scissors,1,3_rulers,girl,2_erasers,3_scissors,2_pencils,1_pencil,1_eraser,boy,boy,girl,,,,,,,,girl with three pairs of scissors,8341,stationeries,big,,3,9,,girl,,3_scissors,39,[],30,Yes,,4,2,,Female,English,No,Chrome,Mac,800,1280,9.516283333333334,
14,condition1,Exp,,GirlThreeSusanPears,,3,9,num,,AOI4,AOI10,three,,6,33-33,Susan's,,Click on the girl that has three of Susan's pears,1,2_oranges,girl,3_bananas,2_apples,3_pears,1_apple,1_orange,boy,boy,girl,,,,,,,,girl with three pears,5011,fruit,big,,4,10,,girl,,3_pears,40,[],30,Yes,,4,2,,Female,English,No,Chrome,Mac,800,1280,9.516283333333334,
14,condition1,Exp,,GirlSomeAmyForks,,4,10,some,,AOI3,AOI9,some,,34,44-22,Amy's,,Click on the girl that has some of Amy's forks,1,2_spoons,girl,3_plates,3_forks,2_knives,1_fork,1_plate,boy,boy,girl,,,,,,,,girl with three forks,3629,kitchenwares,big,,3,9,,girl,,3_forks,41,[],30,Yes,,4,2,,Female,English,No,Chrome,Mac,800,1280,9.516283333333334,
14,condition1,Exp,,BoySomeMichaelErasers,,2,8,some,,AOI1,AOI7,some,,11,33-33,Michael's,,Click on the boy that has some of Michael's erasers,1,2_erasers,girl,3_pencils,2_rulers,3_scissors,1_ruler,1_eraser,boy,boy,girl,,,,,,,,boy with two rubbers,4747,stationeries,small,,1,7,,boy,,2_erasers,42,[],30,Yes,,4,2,,Female,English,No,Chrome,Mac,800,1280,9.516283333333334,
14,condition1,Exp,,GirlSomeAmyPlates,,3,9,some,,AOI4,AOI10,some,,16,33-33,Amy's,,Click on the girl that has some of Amy's plates,1,2_forks,girl,3_knives,3_spoons,2_plates,1_fork,1_plate,boy,boy,girl,,,,,,,,girl with two plates,3645,kitchenwares,small,,4,10,,girl,,2_plates,43,[],30,Yes,,4,2,,Female,English,No,Chrome,Mac,800,1280,9.516283333333334,
14,condition1,Exp,,GirlTwoSusanBananas,,3,9,num,,AOI4,AOI10,two,,5,33-33,Susan's,,Click on the girl that has two of Susan's bananas,1,2_pears,girl,3_apples,3_oranges,2_bananas,1_banana,1_pear,boy,boy,girl,,,,,,,,girl with two bananas ,7713,fruit,small,,4,10,,girl,,2_bananas,44,[],30,Yes,,4,2,,Female,English,No,Chrome,Mac,800,1280,9.516283333333334,
14,condition1,Filler,,BoyOneAmySpoons,,1,7,one,,AOI2,AOI8,one,,39,33-33,Amy's,,Click on the boy that has one of Amy's spoons,1,3_forks,girl,1_spoon,3_plates,3_knives,2_spoons,0,boy,boy,girl,,,,,,,,boy with a spoon,3412,kitchenwares,small,,2,8,,boy,,1_spoon,45,[],30,Yes,,4,2,,Female,English,No,Chrome,Mac,800,1280,9.516283333333334,
14,condition1,Filler,,BoyFourSusanBananas,,1,7,four,,AOI2,AOI8,four,,44,44-22,Susan's,,Click on the boy that has four of Susan's bananas,1,1_orange,girl,4_bananas,3_pears,2_apples,1_orange,1_pear,boy,boy,girl,,,,,,,,boy with four bananas ,4538,fruit,big,,2,8,,boy,,4_bananas,46,[],30,Yes,,4,2,,Female,English,No,Chrome,Mac,800,1280,9.516283333333334,
14,condition1,Filler,,BoyOneAmyPlates,,2,8,one,,AOI1,AOI7,one,,38,33-33,Amy's,,Click on the boy that has one of Amy's plates,1,1_plate,girl,3_knives,3_forks,3_spoons,2_plates,0,boy,boy,girl,,,,,,,,boy with a plate,4374,kitchenwares,small,,1,7,,boy,,1_plate,47,[],30,Yes,,4,2,,Female,English,No,Chrome,Mac,800,1280,9.516283333333334,
14,condition1,Exp,,BoyThreeAmyKnives,,1,7,num,,AOI2,AOI8,three,,14,33-33,Amy's,,Click on the boy that has three of Amy's knives,1,2_spoons,girl,3_knives,2_plates,3_forks,1_spoon,1_plate,boy,boy,girl,,,,,,,,boy with three knives,5616,kitchenwares,big,,2,8,,boy,,3_knives,48,[],30,Yes,,4,2,,Female,English,No,Chrome,Mac,800,1280,9.516283333333334,
15,condition1,Prac,kitchware_Amy_Monday,,Residue_kitchen,4,,,num,AOI3,AOI9,,three,5,44-22,Amy,Click on the girl that has three of Amy's knives,,,2_spoons,girl,3_forks,3_knives,2_plates,1_fork,1_knife,boy,boy,girl,knives,D4_forks,D2_spoons,D4_knives,production practice,1,GirlThreeAmyknives,female with the knives,,kitchenwares,,big,3,,girl,,3_knives,,,[],58,Yes,,3,1,1.00 GBP,Female,English,No,Chrome,Windows,720,1280,10.491633333333333,
15,condition1,Prac,kitchware_Amy_Tuesday,,Slience,2,,,some,AOI4,AOI10,,some,6,33-33,Amy,Click on the girl that has some of Amy's forks,,,3_spoons,girl,2_knives,3_plates,2_forks,1_fork,1_knife,boy,boy,girl,forks,D3_forks,D3_spoons,D3_knives,production practice,2,GirlSomeAmyforks,female with the two forks,,kitchenwares,,big,4,,girl,,2_forks,,,[],58,Yes,,3,1,1.00 GBP,Female,English,No,Chrome,Windows,720,1280,10.491633333333333,
15,condition1,Exp,,BoyTwoAmySpoons,,2,8,num,,AOI1,AOI7,two,,32,44-22,Amy's,,Click on the boy that has two of Amy's spoons,1,2_spoons,girl,3_knives,3_forks,2_plates,1_fork,1_knife,boy,boy,girl,,,,,,,,Male with the two spoons,8848,kitchenwares,small,,1,7,,boy,,2_spoons,1,[],58,Yes,,3,1,1.00 GBP,Female,English,No,Chrome,Windows,720,1280,10.491633333333333,
15,condition1,Exp,,BoySomeMichaelScissors,,1,7,some,,AOI2,AOI8,some,,12,33-33,Michael's,,Click on the boy that has some of Michael's scissors,1,3_rulers,girl,2_scissors,2_pencils,3_erasers,1_pencil,1_scissor,boy,boy,girl,,,,,,,,Male with two pairs of scissors,10914,stationeries,small,,2,8,,boy,,2_scissors,2,[],58,Yes,,3,1,1.00 GBP,Female,English,No,Chrome,Windows,720,1280,10.491633333333333,
15,condition1,Exp,,GirlThreeMichaelScissors,,4,10,num,,AOI3,AOI9,three,,10,33-33,Michael's,,Click on the girl that has three of Michael's scissors,1,3_rulers,girl,2_erasers,3_scissors,2_pencils,1_pencil,1_eraser,boy,boy,girl,,,,,,,,Female with three pair of scissors,11492,stationeries,big,,3,9,,girl,,3_scissors,3,[],58,Yes,,3,1,1.00 GBP,Female,English,No,Chrome,Windows,720,1280,10.491633333333333,
15,condition1,Exp,,GirlSomeSusanApples,,4,10,some,,AOI3,AOI9,some,,20,44-22,Susan's,,Click on the girl that has some of Susan's apples,1,3_pears,girl,2_bananas,3_apples,2_oranges,1_apple,1_pear,boy,boy,girl,,,,,,,,Female with three apples,9370,fruit,big,,3,9,,girl,,3_apples,4,[],58,Yes,,3,1,1.00 GBP,Female,English,No,Chrome,Windows,720,1280,10.491633333333333,
15,condition1,Exp,,BoySomeAmySpoons,,1,7,some,,AOI2,AOI8,some,,33,44-22,Amy's,,Click on the boy that has some of Amy's spoons,1,2_plates,girl,3_spoons,2_forks,3_knives,1_spoon,1_knife,boy,boy,girl,,,,,,,,Male with three spoons,9568,kitchenwares,big,,2,8,,boy,,3_spoons,5,[],58,Yes,,3,1,1.00 GBP,Female,English,No,Chrome,Windows,720,1280,10.491633333333333,
15,condition1,Exp,,BoyAllAmyForks,,1,7,all,,AOI2,AOI8,all,,17,33-33,Amy's,,Click on the boy that has all of Amy's forks,1,2_spoons,girl,3_forks,2_knives,3_plates,1_spoon,1_knife,boy,boy,girl,,,,,,,,Male with three forks,7604,kitchenwares,big,,2,8,,boy,,3_forks,6,[],58,Yes,,3,1,1.00 GBP,Female,English,No,Chrome,Windows,720,1280,10.491633333333333,
15,condition1,Filler,,GirlFourSusanOranges,,4,10,four,,AOI3,AOI9,four,,45,44-22,Susan's,,Click on the girl that has four of Susan's oranges,1,2_pears,girl,3_apples,4_oranges,1_banana,1_banana,1_apple,boy,boy,girl,,,,,,,,Female with four apples,8702,fruit,big,,3,9,,girl,,4_oranges,7,[],58,Yes,,3,1,1.00 GBP,Female,English,No,Chrome,Windows,720,1280,10.491633333333333,
15,condition1,Exp,,GirlTwoMichaelRulers,,4,10,num,,AOI3,AOI9,two,,9,33-33,Michael's,,Click on the girl that has two of Michael's rulers,1,3_pencils,girl,2_scissors,2_rulers,3_erasers,1_ruler,1_scissor,boy,boy,girl,,,,,,,,Female with two rulers,11119,stationeries,small,,3,9,,girl,,2_rulers,8,[],58,Yes,,3,1,1.00 GBP,Female,English,No,Chrome,Windows,720,1280,10.491633333333333,
15,condition1,Exp,,GirlAllMichaelRulers,,3,9,all,,AOI4,AOI10,all,,8,33-33,Michael's,,Click on the girl that has all of Michael's rulers,1,2_scissors,girl,3_pencils,2_erasers,3_rulers,1_eraser,1_scissor,boy,boy,girl,,,,,,,,Female with three rulers,8780,stationeries,big,,4,10,,girl,,3_rulers,9,[],58,Yes,,3,1,1.00 GBP,Female,English,No,Chrome,Windows,720,1280,10.491633333333333,
15,condition1,Exp,,GirlAllAmySpoons,,4,10,all,,AOI3,AOI9,all,,36,44-22,Amy's,,Click on the girl that has all of Amy's spoons,1,3_plates,girl,2_knives,2_spoons,3_forks,1_plate,1_fork,boy,boy,girl,,,,,,,,Female with two spoons,12412,kitchenwares,small,,3,9,,girl,,2_spoons,10,[],58,Yes,,3,1,1.00 GBP,Female,English,No,Chrome,Windows,720,1280,10.491633333333333,
15,condition1,Exp,,BoyThreeAmyKnives,,1,7,num,,AOI2,AOI8,three,,14,33-33,Amy's,,Click on the boy that has three of Amy's knives,1,2_spoons,girl,3_knives,2_plates,3_forks,1_spoon,1_plate,boy,boy,girl,,,,,,,,male with three knives,8508,kitchenwares,big,,2,8,,boy,,3_knives,11,[],58,Yes,,3,1,1.00 GBP,Female,English,No,Chrome,Windows,720,1280,10.491633333333333,
15,condition1,Filler,,BoyOneAmyPlates,,2,8,one,,AOI1,AOI7,one,,38,33-33,Amy's,,Click on the boy that has one of Amy's plates,1,1_plate,girl,3_knives,3_forks,3_spoons,2_plates,0,boy,boy,girl,,,,,,,,male with one plate,9513,kitchenwares,small,,1,7,,boy,,1_plate,12,[],58,Yes,,3,1,1.00 GBP,Female,English,No,Chrome,Windows,720,1280,10.491633333333333,
15,condition1,Exp,,GirlSomeAmyKnives,,4,10,some,,AOI3,AOI9,some,,15,33-33,Amy's,,Click on the girl that has some of Amy's knives,1,2_spoons,girl,3_plates,2_knives,3_forks,1_spoon,1_knife,boy,boy,girl,,,,,,,,female with two knives,10825,kitchenwares,small,,3,9,,girl,,2_knives,13,[],58,Yes,,3,1,1.00 GBP,Female,English,No,Chrome,Windows,720,1280,10.491633333333333,
15,condition1,Filler,,GirlOneSusanPears,,3,9,one,,AOI4,AOI10,one,,42,33-33,Susan's,,Click on the girl that has one of Susan's pears,1,3_bananas,girl,3_oranges,3_apples,1_pear,2_pears,0,boy,boy,girl,,,,,,,,female with the pear,11404,fruit,small,,4,10,,girl,,1_pear,14,[],58,Yes,,3,1,1.00 GBP,Female,English,No,Chrome,Windows,720,1280,10.491633333333333,
15,condition1,Exp,,BoyAllSusanApples,,2,8,all,,AOI1,AOI7,all,,22,44-22,Susan's,,Click on the boy that has all of Susan's apples,1,2_apples,girl,3_pears,3_oranges,2_bananas,1_orange,1_pear,boy,boy,girl,,,,,,,,male with two apples,8549,fruit,small,,1,7,,boy,,2_apples,15,[],58,Yes,,3,1,1.00 GBP,Female,English,No,Chrome,Windows,720,1280,10.491633333333333,
15,condition1,Filler,,GirlFourMichaelPencils,,3,9,four,,AOI4,AOI10,four,,48,44-22,Michael's,,Click on the girl that has four of Michael's pencils,1,1_ruler,girl,2_erasers,3_scissors,4_pencils,1_ruler,1_scissor,boy,boy,girl,,,,,,,,female with four pencils,11510,stationeries,big,,4,10,,girl,,4_pencils,16,[],58,Yes,,3,1,1.00 GBP,Female,English,No,Chrome,Windows,720,1280,10.491633333333333,
15,condition1,Exp,,GirlAllMichaelErasers,,4,10,all,,AOI3,AOI9,all,,26,44-22,Michael's,,Click on the girl that has all of Michael's erasers,1,3_pencils,girl,2_scissors,2_erasers,3_rulers,1_pencil,1_ruler,boy,boy,girl,,,,,,,,female with two erasers,10070,stationeries,small,,3,9,,girl,,2_erasers,17,[],58,Yes,,3,1,1.00 GBP,Female,English,No,Chrome,Windows,720,1280,10.491633333333333,
15,condition1,Exp,,GirlSomeMichaelRulers,,3,9,some,,AOI4,AOI10,some,,30,44-22,Michael's,,Click on the girl that has some of Michael's rulers,1,3_erasers,girl,2_pencils,2_scissors,3_rulers,1_ruler,1_eraser,boy,boy,girl,,,,,,,,female with three rulers,10241,stationeries,big,,4,10,,girl,,3_rulers,18,[],58,Yes,,3,1,1.00 GBP,Female,English,No,Chrome,Windows,720,1280,10.491633333333333,
15,condition1,Exp,,BoySomeSusanPears,,2,8,some,,AOI1,AOI7,some,,1,33-33,Susan's,,Click on the boy that has some of Susan's pears,1,2_pears,girl,3_bananas,2_apples,3_oranges,1_apple,1_pear,boy,boy,girl,,,,,,,,male with two pears,8284,fruit,small,,1,7,,boy,,2_pears,19,[],58,Yes,,3,1,1.00 GBP,Female,English,No,Chrome,Windows,720,1280,10.491633333333333,
15,condition1,Exp,,GirlTwoAmyForks,,3,9,num,,AOI4,AOI10,two,,13,33-33,Amy's,,Click on the girl that has two of Amy's forks,1,2_knives,girl,3_spoons,3_plates,2_forks,1_fork,1_knife,boy,boy,girl,,,,,,,,female with two forks,9811,kitchenwares,small,,4,10,,girl,,2_forks,20,[],58,Yes,,3,1,1.00 GBP,Female,English,No,Chrome,Windows,720,1280,10.491633333333333,
15,condition1,Exp,,GirlAllSusanBananas,,4,10,all,,AOI3,AOI9,all,,4,33-33,Susan's,,Click on the girl that has all of Susan's bananas,1,2_pears,girl,3_apples,3_bananas,2_oranges,1_orange,1_pear,boy,boy,girl,,,,,,,,female with three bananas,11560,fruit,big,,3,9,,girl,,3_bananas,21,[],58,Yes,,3,1,1.00 GBP,Female,English,No,Chrome,Windows,720,1280,10.491633333333333,
15,condition1,Exp,,GirlSomeAmyPlates,,3,9,some,,AOI4,AOI10,some,,16,33-33,Amy's,,Click on the girl that has some of Amy's plates,1,2_forks,girl,3_knives,3_spoons,2_plates,1_fork,1_plate,boy,boy,girl,,,,,,,,female with two plates,9417,kitchenwares,small,,4,10,,girl,,2_plates,22,[],58,Yes,,3,1,1.00 GBP,Female,English,No,Chrome,Windows,720,1280,10.491633333333333,
15,condition1,Exp,,GirlThreeSusanOranges,,4,10,num,,AOI3,AOI9,three,,23,44-22,Susan's,,Click on the girl that has three of Susan's oranges,1,3_apples,girl,2_pears,3_oranges,2_bananas,1_apple,1_orange,boy,boy,girl,,,,,,,,female with three oranges,9547,fruit,big,,3,9,,girl,,3_oranges,23,[],58,Yes,,3,1,1.00 GBP,Female,English,No,Chrome,Windows,720,1280,10.491633333333333,
15,condition1,Filler,,GirlFourAmyKnives,,4,10,four,,AOI3,AOI9,four,,46,44-22,Amy's,,Click on the girl that has four of Amy's knives,1,1_spoon,girl,3_plates,4_knives,2_forks,1_spoon,1_plate,boy,boy,girl,,,,,,,,female with four knives,9264,kitchenwares,big,,3,9,,girl,,4_knives,24,[],58,Yes,,3,1,1.00 GBP,Female,English,No,Chrome,Windows,720,1280,10.491633333333333,
15,condition1,Exp,,GirlSomeAmyForks,,4,10,some,,AOI3,AOI9,some,,34,44-22,Amy's,,Click on the girl that has some of Amy's forks,1,2_spoons,girl,3_plates,3_forks,2_knives,1_fork,1_plate,boy,boy,girl,,,,,,,,female with three forks,12137,kitchenwares,big,,3,9,,girl,,3_forks,25,[],58,Yes,,3,1,1.00 GBP,Female,English,No,Chrome,Windows,720,1280,10.491633333333333,
15,condition1,Exp,,BoySomeMichaelPencils,,2,8,some,,AOI1,AOI7,some,,29,44-22,Michael's,,Click on the boy that has some of Michael's pencils,1,3_pencils,girl,2_erasers,3_scissors,2_rulers,1_pencil,1_scissor,boy,boy,girl,,,,,,,,male with three pencils,9629,stationeries,big,,1,7,,boy,,3_pencils,26,[],58,Yes,,3,1,1.00 GBP,Female,English,No,Chrome,Windows,720,1280,10.491633333333333,
15,condition1,Exp,,GirlAllMichaelPencils,,3,9,all,,AOI4,AOI10,all,,25,44-22,Michael's,,Click on the girl that has all of Michael's pencils,1,3_erasers,girl,2_rulers,3_scissors,2_pencils,1_eraser,1_scissor,boy,boy,girl,,,,,,,,female with two pencils,8444,stationeries,small,,4,10,,girl,,2_pencils,27,[],58,Yes,,3,1,1.00 GBP,Female,English,No,Chrome,Windows,720,1280,10.491633333333333,
15,condition1,Filler,,GirlFourAmyPlates,,3,9,four,,AOI4,AOI10,four,,47,44-22,Amy's,,Click on the girl that has four of Amy's plates,1,1_knife,girl,3_forks,2_spoons,4_plates,1_knife,1_fork,boy,boy,girl,,,,,,,,female with four plates,8638,kitchenwares,big,,4,10,,girl,,4_plates,28,[],58,Yes,,3,1,1.00 GBP,Female,English,No,Chrome,Windows,720,1280,10.491633333333333,
15,condition1,Exp,,GirlAllAmyPlates,,3,9,all,,AOI4,AOI10,all,,35,44-22,Amy's,,Click on the girl that has all of Amy's plates,1,3_spoons,girl,2_forks,3_knives,2_plates,1_spoon,1_knife,boy,boy,girl,,,,,,,,female with two plates,7235,kitchenwares,small,,4,10,,girl,,2_plates,29,[],58,Yes,,3,1,1.00 GBP,Female,English,No,Chrome,Windows,720,1280,10.491633333333333,
15,condition1,Filler,,BoyFourMichaelScissors,,2,8,four,,AOI1,AOI7,four,,43,44-22,Michael's,,Click on the boy that has four of Michael's scissors,1,4_scissors,girl,1_pencil,2_rulers,3_erasers,1_pencil,1_eraser,boy,boy,girl,,,,,,,,male with four pairs of scissors,11646,stationeries,big,,1,7,,boy,,4_scissors,30,[],58,Yes,,3,1,1.00 GBP,Female,English,No,Chrome,Windows,720,1280,10.491633333333333,
15,condition1,Exp,,BoyAllMichaelScissors,,2,8,all,,AOI1,AOI7,all,,7,33-33,Michael's,,Click on the boy that has all of Michael's scissors,1,3_scissors,girl,2_pencils,3_erasers,2_rulers,1_pencil,1_ruler,boy,boy,girl,,,,,,,,male with three pairs of scissors,15823,stationeries,big,,1,7,,boy,,3_scissors,31,[],58,Yes,,3,1,1.00 GBP,Female,English,No,Chrome,Windows,720,1280,10.491633333333333,
15,condition1,Filler,,BoyOneAmySpoons,,1,7,one,,AOI2,AOI8,one,,39,33-33,Amy's,,Click on the boy that has one of Amy's spoons,1,3_forks,girl,1_spoon,3_plates,3_knives,2_spoons,0,boy,boy,girl,,,,,,,,male with a spoon,11025,kitchenwares,small,,2,8,,boy,,1_spoon,32,[],58,Yes,,3,1,1.00 GBP,Female,English,No,Chrome,Windows,720,1280,10.491633333333333,
15,condition1,Exp,,BoyAllAmyKnives,,2,8,all,,AOI1,AOI7,all,,18,33-33,Amy's,,Click on the boy that has all of Amy's knives,1,3_knives,girl,2_plates,3_spoons,2_forks,1_plate,1_fork,boy,boy,girl,,,,,,,,male with three knives,8886,kitchenwares,big,,1,7,,boy,,3_knives,33,[],58,Yes,,3,1,1.00 GBP,Female,English,No,Chrome,Windows,720,1280,10.491633333333333,
15,condition1,Filler,,BoyOneSusanApples,,2,8,one,,AOI1,AOI7,one,,37,33-33,Susan's,,Click on the boy that has one of Susan's apples,1,1_apple,girl,3_pears,3_bananas,3_oranges,2_apples,0,boy,boy,girl,,,,,,,,male with an apple,23921,fruit,small,,1,7,,boy,,1_apple,34,[],58,Yes,,3,1,1.00 GBP,Female,English,No,Chrome,Windows,720,1280,10.491633333333333,
15,condition1,Exp,,GirlTwoSusanBananas,,3,9,num,,AOI4,AOI10,two,,5,33-33,Susan's,,Click on the girl that has two of Susan's bananas,1,2_pears,girl,3_apples,3_oranges,2_bananas,1_banana,1_pear,boy,boy,girl,,,,,,,,female with two bananas,9135,fruit,small,,4,10,,girl,,2_bananas,35,[],58,Yes,,3,1,1.00 GBP,Female,English,No,Chrome,Windows,720,1280,10.491633333333333,
15,condition1,Exp,,BoySomeMichaelErasers,,2,8,some,,AOI1,AOI7,some,,11,33-33,Michael's,,Click on the boy that has some of Michael's erasers,1,2_erasers,girl,3_pencils,2_rulers,3_scissors,1_ruler,1_eraser,boy,boy,girl,,,,,,,,male with an eraser,8411,stationeries,small,,1,7,,boy,,2_erasers,36,[],58,Yes,,3,1,1.00 GBP,Female,English,No,Chrome,Windows,720,1280,10.491633333333333,
15,condition1,Filler,,BoyOneMichaelRulers,,1,7,one,,AOI2,AOI8,one,,40,33-33,Michael's,,Click on the boy that has one of Michael's rulers,1,3_erasers,girl,1_ruler,3_pencils,3_scissors,2_scissors,0,boy,boy,girl,,,,,,,,male with a ruler,9963,stationeries,small,,2,8,,boy,,1_ruler,37,[],58,Yes,,3,1,1.00 GBP,Female,English,No,Chrome,Windows,720,1280,10.491633333333333,
15,condition1,Exp,,BoyTwoMichaelPencils,,1,7,num,,AOI2,AOI8,two,,28,44-22,Michael's,,Click on the boy that has two of Michael's pencils,1,3_scissors,girl,2_pencils,2_erasers,3_rulers,1_ruler,1_scissor,boy,boy,girl,,,,,,,,male with two pencils,24655,stationeries,small,,2,8,,boy,,2_pencils,38,[],58,Yes,,3,1,1.00 GBP,Female,English,No,Chrome,Windows,720,1280,10.491633333333333,
15,condition1,Filler,,GirlOneMichaelErasers,,4,10,one,,AOI3,AOI9,one,,41,33-33,Michael's,,Click on the girl that has one of Michael's erasers,1,3_pencils,girl,3_scissors,1_eraser,3_rulers,2_erasers,0,boy,boy,girl,,,,,,,,female with an eraser,9647,stationeries,small,,3,9,,girl,,1_eraser,39,[],58,Yes,,3,1,1.00 GBP,Female,English,No,Chrome,Windows,720,1280,10.491633333333333,
15,condition1,Exp,,BoyThreeAmyPlates,,2,8,num,,AOI1,AOI7,three,,31,44-22,Amy's,,Click on the boy that has three of Amy's plates,1,3_plates,girl,2_forks,3_spoons,2_knives,1_spoon,1_plate,boy,boy,girl,,,,,,,,male with three plates,8475,kitchenwares,big,,1,7,,boy,,3_plates,40,[],58,Yes,,3,1,1.00 GBP,Female,English,No,Chrome,Windows,720,1280,10.491633333333333,
15,condition1,Exp,,BoyAllSusanOranges,,1,7,all,,AOI2,AOI8,all,,21,44-22,Susan's,,Click on the boy that has all of Susan's oranges,1,3_bananas,girl,2_oranges,3_apples,2_pears,1_apple,1_banana,boy,boy,girl,,,,,,,,male with two oranges,7762,fruit,small,,2,8,,boy,,2_oranges,41,[],58,Yes,,3,1,1.00 GBP,Female,English,No,Chrome,Windows,720,1280,10.491633333333333,
15,condition1,Exp,,GirlThreeSusanPears,,3,9,num,,AOI4,AOI10,three,,6,33-33,Susan's,,Click on the girl that has three of Susan's pears,1,2_oranges,girl,3_bananas,2_apples,3_pears,1_apple,1_orange,boy,boy,girl,,,,,,,,female with three pears,7078,fruit,big,,4,10,,girl,,3_pears,42,[],58,Yes,,3,1,1.00 GBP,Female,English,No,Chrome,Windows,720,1280,10.491633333333333,
15,condition1,Filler,,BoyFourSusanBananas,,1,7,four,,AOI2,AOI8,four,,44,44-22,Susan's,,Click on the boy that has four of Susan's bananas,1,1_orange,girl,4_bananas,3_pears,2_apples,1_orange,1_pear,boy,boy,girl,,,,,,,,male with four bananas,11364,fruit,big,,2,8,,boy,,4_bananas,43,[],58,Yes,,3,1,1.00 GBP,Female,English,No,Chrome,Windows,720,1280,10.491633333333333,
15,condition1,Exp,,GirlSomeSusanBananas,,3,9,some,,AOI4,AOI10,some,,19,44-22,Susan's,,Click on the girl that has some of Susan's bananas,1,3_oranges,girl,2_apples,2_pears,3_bananas,1_banana,1_orange,boy,boy,girl,,,,,,,,female with three bananas,18940,fruit,big,,4,10,,girl,,3_bananas,44,[],58,Yes,,3,1,1.00 GBP,Female,English,No,Chrome,Windows,720,1280,10.491633333333333,
15,condition1,Exp,,BoyThreeMichaelErasers,,1,7,num,,AOI2,AOI8,three,,27,44-22,Michael's,,Click on the boy that has three of Michael's erasers,1,2_rulers,girl,3_erasers,2_scissors,3_pencils,1_pencil,1_eraser,boy,boy,girl,,,,,,,,male with three erasers,9000,stationeries,big,,2,8,,boy,,3_erasers,45,[],58,Yes,,3,1,1.00 GBP,Female,English,No,Chrome,Windows,720,1280,10.491633333333333,
15,condition1,Exp,,BoyTwoSusanApples,,2,8,num,,AOI1,AOI7,two,,24,44-22,Susan's,,Click on the boy that has two of Susan's apples,1,2_apples,girl,3_pears,3_bananas,2_oranges,1_banana,1_pear,boy,boy,girl,,,,,,,,male with two apples,7386,fruit,small,,1,7,,boy,,2_apples,46,[],58,Yes,,3,1,1.00 GBP,Female,English,No,Chrome,Windows,720,1280,10.491633333333333,
15,condition1,Exp,,BoyAllSusanPears,,1,7,all,,AOI2,AOI8,all,,3,33-33,Susan's,,Click on the boy that has all of Susan's pears,1,2_apples,girl,3_pears,2_bananas,3_oranges,1_apple,1_banana,boy,boy,girl,,,,,,,,male with three pears,6571,fruit,big,,2,8,,boy,,3_pears,47,[],58,Yes,,3,1,1.00 GBP,Female,English,No,Chrome,Windows,720,1280,10.491633333333333,
15,condition1,Exp,,BoySomeSusanOranges,,1,7,some,,AOI2,AOI8,some,,2,33-33,Susan's,,Click on the boy that has some of Susan's oranges,1,3_apples,girl,2_oranges,2_bananas,3_pears,1_banana,1_orange,boy,boy,girl,,,,,,,,male with two oranges,7379,fruit,small,,2,8,,boy,,2_oranges,48,[],58,Yes,,3,1,1.00 GBP,Female,English,No,Chrome,Windows,720,1280,10.491633333333333,
13,condition1,Prac,kitchware_Amy_Monday,,Residue_kitchen,4,,,num,AOI3,AOI9,,three,5,44-22,Amy,Click on the girl that has three of Amy's knives,,,2_spoons,girl,3_forks,3_knives,2_plates,1_fork,1_knife,boy,boy,girl,knives,D4_forks,D2_spoons,D4_knives,production practice,1,GirlThreeAmyknives,girl with three knives,,kitchenwares,,big,3,,girl,,3_knives,,,[],18,Yes,,0,1,€5,Female,English,,Chrome,Windows,864,1536,8.982016666666667,
13,condition1,Prac,kitchware_Amy_Tuesday,,Slience,2,,,some,AOI4,AOI10,,some,6,33-33,Amy,Click on the girl that has some of Amy's forks,,,3_spoons,girl,2_knives,3_plates,2_forks,1_fork,1_knife,boy,boy,girl,forks,D3_forks,D3_spoons,D3_knives,production practice,2,GirlSomeAmyforks,girl with two forks,,kitchenwares,,big,4,,girl,,2_forks,,,[],18,Yes,,0,1,€5,Female,English,,Chrome,Windows,864,1536,8.982016666666667,
13,condition1,Exp,,GirlAllMichaelRulers,,3,9,all,,AOI4,AOI10,all,,8,33-33,Michael's,,Click on the girl that has all of Michael's rulers,1,2_scissors,girl,3_pencils,2_erasers,3_rulers,1_eraser,1_scissor,boy,boy,girl,,,,,,,,girl with rulers,19222,stationeries,big,,4,10,,girl,,3_rulers,1,[],18,Yes,,0,1,€5,Female,English,,Chrome,Windows,864,1536,8.982016666666667,
13,condition1,Exp,,BoyThreeAmyKnives,,1,7,num,,AOI2,AOI8,three,,14,33-33,Amy's,,Click on the boy that has three of Amy's knives,1,2_spoons,girl,3_knives,2_plates,3_forks,1_spoon,1_plate,boy,boy,girl,,,,,,,,boy with knives,7538,kitchenwares,big,,2,8,,boy,,3_knives,2,[],18,Yes,,0,1,€5,Female,English,,Chrome,Windows,864,1536,8.982016666666667,
13,condition1,Filler,,GirlFourAmyKnives,,4,10,four,,AOI3,AOI9,four,,46,44-22,Amy's,,Click on the girl that has four of Amy's knives,1,1_spoon,girl,3_plates,4_knives,2_forks,1_spoon,1_plate,boy,boy,girl,,,,,,,,girl with knives,8604,kitchenwares,big,,3,9,,girl,,4_knives,3,[],18,Yes,,0,1,€5,Female,English,,Chrome,Windows,864,1536,8.982016666666667,
13,condition1,Exp,,GirlTwoAmyForks,,3,9,num,,AOI4,AOI10,two,,13,33-33,Amy's,,Click on the girl that has two of Amy's forks,1,2_knives,girl,3_spoons,3_plates,2_forks,1_fork,1_knife,boy,boy,girl,,,,,,,,girl with forks,5846,kitchenwares,small,,4,10,,girl,,2_forks,4,[],18,Yes,,0,1,€5,Female,English,,Chrome,Windows,864,1536,8.982016666666667,
13,condition1,Filler,,BoyOneSusanApples,,2,8,one,,AOI1,AOI7,one,,37,33-33,Susan's,,Click on the boy that has one of Susan's apples,1,1_apple,girl,3_pears,3_bananas,3_oranges,2_apples,0,boy,boy,girl,,,,,,,,boy with apple,8534,fruit,small,,1,7,,boy,,1_apple,5,[],18,Yes,,0,1,€5,Female,English,,Chrome,Windows,864,1536,8.982016666666667,
13,condition1,Exp,,BoyTwoAmySpoons,,2,8,num,,AOI1,AOI7,two,,32,44-22,Amy's,,Click on the boy that has two of Amy's spoons,1,2_spoons,girl,3_knives,3_forks,2_plates,1_fork,1_knife,boy,boy,girl,,,,,,,,boy with spoons,7332,kitchenwares,small,,1,7,,boy,,2_spoons,6,[],18,Yes,,0,1,€5,Female,English,,Chrome,Windows,864,1536,8.982016666666667,
13,condition1,Exp,,GirlThreeSusanOranges,,4,10,num,,AOI3,AOI9,three,,23,44-22,Susan's,,Click on the girl that has three of Susan's oranges,1,3_apples,girl,2_pears,3_oranges,2_bananas,1_apple,1_orange,boy,boy,girl,,,,,,,,girl with oranges,8890,fruit,big,,3,9,,girl,,3_oranges,7,[],18,Yes,,0,1,€5,Female,English,,Chrome,Windows,864,1536,8.982016666666667,
13,condition1,Exp,,BoySomeMichaelErasers,,2,8,some,,AOI1,AOI7,some,,11,33-33,Michael's,,Click on the boy that has some of Michael's erasers,1,2_erasers,girl,3_pencils,2_rulers,3_scissors,1_ruler,1_eraser,boy,boy,girl,,,,,,,,boy with erasers,10632,stationeries,small,,1,7,,boy,,2_erasers,8,[],18,Yes,,0,1,€5,Female,English,,Chrome,Windows,864,1536,8.982016666666667,
13,condition1,Exp,,GirlThreeMichaelScissors,,4,10,num,,AOI3,AOI9,three,,10,33-33,Michael's,,Click on the girl that has three of Michael's scissors,1,3_rulers,girl,2_erasers,3_scissors,2_pencils,1_pencil,1_eraser,boy,boy,girl,,,,,,,,girl with scissors,12986,stationeries,big,,3,9,,girl,,3_scissors,9,[],18,Yes,,0,1,€5,Female,English,,Chrome,Windows,864,1536,8.982016666666667,
13,condition1,Exp,,BoyThreeMichaelErasers,,1,7,num,,AOI2,AOI8,three,,27,44-22,Michael's,,Click on the boy that has three of Michael's erasers,1,2_rulers,girl,3_erasers,2_scissors,3_pencils,1_pencil,1_eraser,boy,boy,girl,,,,,,,,boy with rubbers,9533,stationeries,big,,2,8,,boy,,3_erasers,10,[],18,Yes,,0,1,€5,Female,English,,Chrome,Windows,864,1536,8.982016666666667,
13,condition1,Exp,,GirlThreeSusanPears,,3,9,num,,AOI4,AOI10,three,,6,33-33,Susan's,,Click on the girl that has three of Susan's pears,1,2_oranges,girl,3_bananas,2_apples,3_pears,1_apple,1_orange,boy,boy,girl,,,,,,,,girl with pears,7902,fruit,big,,4,10,,girl,,3_pears,11,[],18,Yes,,0,1,€5,Female,English,,Chrome,Windows,864,1536,8.982016666666667,
13,condition1,Exp,,BoyTwoMichaelPencils,,1,7,num,,AOI2,AOI8,two,,28,44-22,Michael's,,Click on the boy that has two of Michael's pencils,1,3_scissors,girl,2_pencils,2_erasers,3_rulers,1_ruler,1_scissor,boy,boy,girl,,,,,,,,boy with pencils,8856,stationeries,small,,2,8,,boy,,2_pencils,12,[],18,Yes,,0,1,€5,Female,English,,Chrome,Windows,864,1536,8.982016666666667,
13,condition1,Filler,,GirlFourMichaelPencils,,3,9,four,,AOI4,AOI10,four,,48,44-22,Michael's,,Click on the girl that has four of Michael's pencils,1,1_ruler,girl,2_erasers,3_scissors,4_pencils,1_ruler,1_scissor,boy,boy,girl,,,,,,,,girl with pencils,10916,stationeries,big,,4,10,,girl,,4_pencils,13,[],18,Yes,,0,1,€5,Female,English,,Chrome,Windows,864,1536,8.982016666666667,
13,condition1,Exp,,BoySomeAmySpoons,,1,7,some,,AOI2,AOI8,some,,33,44-22,Amy's,,Click on the boy that has some of Amy's spoons,1,2_plates,girl,3_spoons,2_forks,3_knives,1_spoon,1_knife,boy,boy,girl,,,,,,,,boy with spoons,8178,kitchenwares,big,,2,8,,boy,,3_spoons,14,[],18,Yes,,0,1,€5,Female,English,,Chrome,Windows,864,1536,8.982016666666667,
13,condition1,Exp,,BoyAllMichaelScissors,,2,8,all,,AOI1,AOI7,all,,7,33-33,Michael's,,Click on the boy that has all of Michael's scissors,1,3_scissors,girl,2_pencils,3_erasers,2_rulers,1_pencil,1_ruler,boy,boy,girl,,,,,,,,boy with scissors,8245,stationeries,big,,1,7,,boy,,3_scissors,15,[],18,Yes,,0,1,€5,Female,English,,Chrome,Windows,864,1536,8.982016666666667,
13,condition1,Exp,,BoyTwoSusanApples,,2,8,num,,AOI1,AOI7,two,,24,44-22,Susan's,,Click on the boy that has two of Susan's apples,1,2_apples,girl,3_pears,3_bananas,2_oranges,1_banana,1_pear,boy,boy,girl,,,,,,,,boy with apples,5952,fruit,small,,1,7,,boy,,2_apples,16,[],18,Yes,,0,1,€5,Female,English,,Chrome,Windows,864,1536,8.982016666666667,
13,condition1,Exp,,GirlAllAmyPlates,,3,9,all,,AOI4,AOI10,all,,35,44-22,Amy's,,Click on the girl that has all of Amy's plates,1,3_spoons,girl,2_forks,3_knives,2_plates,1_spoon,1_knife,boy,boy,girl,,,,,,,,girl with plates,5632,kitchenwares,small,,4,10,,girl,,2_plates,17,[],18,Yes,,0,1,€5,Female,English,,Chrome,Windows,864,1536,8.982016666666667,
13,condition1,Filler,,BoyFourSusanBananas,,1,7,four,,AOI2,AOI8,four,,44,44-22,Susan's,,Click on the boy that has four of Susan's bananas,1,1_orange,girl,4_bananas,3_pears,2_apples,1_orange,1_pear,boy,boy,girl,,,,,,,,boy with bananas,6393,fruit,big,,2,8,,boy,,4_bananas,18,[],18,Yes,,0,1,€5,Female,English,,Chrome,Windows,864,1536,8.982016666666667,
13,condition1,Filler,,GirlFourSusanOranges,,4,10,four,,AOI3,AOI9,four,,45,44-22,Susan's,,Click on the girl that has four of Susan's oranges,1,2_pears,girl,3_apples,4_oranges,1_banana,1_banana,1_apple,boy,boy,girl,,,,,,,,girl with oranges,6706,fruit,big,,3,9,,girl,,4_oranges,19,[],18,Yes,,0,1,€5,Female,English,,Chrome,Windows,864,1536,8.982016666666667,
13,condition1,Exp,,BoySomeSusanOranges,,1,7,some,,AOI2,AOI8,some,,2,33-33,Susan's,,Click on the boy that has some of Susan's oranges,1,3_apples,girl,2_oranges,2_bananas,3_pears,1_banana,1_orange,boy,boy,girl,,,,,,,,boy with oranges,7435,fruit,small,,2,8,,boy,,2_oranges,20,[],18,Yes,,0,1,€5,Female,English,,Chrome,Windows,864,1536,8.982016666666667,
13,condition1,Exp,,BoyAllSusanOranges,,1,7,all,,AOI2,AOI8,all,,21,44-22,Susan's,,Click on the boy that has all of Susan's oranges,1,3_bananas,girl,2_oranges,3_apples,2_pears,1_apple,1_banana,boy,boy,girl,,,,,,,,boy with oranges,7667,fruit,small,,2,8,,boy,,2_oranges,21,[],18,Yes,,0,1,€5,Female,English,,Chrome,Windows,864,1536,8.982016666666667,
13,condition1,Exp,,BoyAllAmyForks,,1,7,all,,AOI2,AOI8,all,,17,33-33,Amy's,,Click on the boy that has all of Amy's forks,1,2_spoons,girl,3_forks,2_knives,3_plates,1_spoon,1_knife,boy,boy,girl,,,,,,,,boy with forks,8403,kitchenwares,big,,2,8,,boy,,3_forks,22,[],18,Yes,,0,1,€5,Female,English,,Chrome,Windows,864,1536,8.982016666666667,
13,condition1,Exp,,BoyAllSusanPears,,1,7,all,,AOI2,AOI8,all,,3,33-33,Susan's,,Click on the boy that has all of Susan's pears,1,2_apples,girl,3_pears,2_bananas,3_oranges,1_apple,1_banana,boy,boy,girl,,,,,,,,boy with pears,7895,fruit,big,,2,8,,boy,,3_pears,23,[],18,Yes,,0,1,€5,Female,English,,Chrome,Windows,864,1536,8.982016666666667,
13,condition1,Exp,,GirlSomeSusanBananas,,3,9,some,,AOI4,AOI10,some,,19,44-22,Susan's,,Click on the girl that has some of Susan's bananas,1,3_oranges,girl,2_apples,2_pears,3_bananas,1_banana,1_orange,boy,boy,girl,,,,,,,,girl with bananas,5771,fruit,big,,4,10,,girl,,3_bananas,24,[],18,Yes,,0,1,€5,Female,English,,Chrome,Windows,864,1536,8.982016666666667,
13,condition1,Exp,,GirlSomeAmyKnives,,4,10,some,,AOI3,AOI9,some,,15,33-33,Amy's,,Click on the girl that has some of Amy's knives,1,2_spoons,girl,3_plates,2_knives,3_forks,1_spoon,1_knife,boy,boy,girl,,,,,,,,girl with knives,5615,kitchenwares,small,,3,9,,girl,,2_knives,25,[],18,Yes,,0,1,€5,Female,English,,Chrome,Windows,864,1536,8.982016666666667,
13,condition1,Exp,,GirlAllMichaelErasers,,4,10,all,,AOI3,AOI9,all,,26,44-22,Michael's,,Click on the girl that has all of Michael's erasers,1,3_pencils,girl,2_scissors,2_erasers,3_rulers,1_pencil,1_ruler,boy,boy,girl,,,,,,,,girl with rubbers,6843,stationeries,small,,3,9,,girl,,2_erasers,26,[],18,Yes,,0,1,€5,Female,English,,Chrome,Windows,864,1536,8.982016666666667,
13,condition1,Exp,,GirlSomeAmyPlates,,3,9,some,,AOI4,AOI10,some,,16,33-33,Amy's,,Click on the girl that has some of Amy's plates,1,2_forks,girl,3_knives,3_spoons,2_plates,1_fork,1_plate,boy,boy,girl,,,,,,,,girl with plates,7791,kitchenwares,small,,4,10,,girl,,2_plates,27,[],18,Yes,,0,1,€5,Female,English,,Chrome,Windows,864,1536,8.982016666666667,
13,condition1,Exp,,GirlAllSusanBananas,,4,10,all,,AOI3,AOI9,all,,4,33-33,Susan's,,Click on the girl that has all of Susan's bananas,1,2_pears,girl,3_apples,3_bananas,2_oranges,1_orange,1_pear,boy,boy,girl,,,,,,,,girl with bananas,5228,fruit,big,,3,9,,girl,,3_bananas,28,[],18,Yes,,0,1,€5,Female,English,,Chrome,Windows,864,1536,8.982016666666667,
13,condition1,Exp,,GirlSomeAmyForks,,4,10,some,,AOI3,AOI9,some,,34,44-22,Amy's,,Click on the girl that has some of Amy's forks,1,2_spoons,girl,3_plates,3_forks,2_knives,1_fork,1_plate,boy,boy,girl,,,,,,,,girl with forks,6018,kitchenwares,big,,3,9,,girl,,3_forks,29,[],18,Yes,,0,1,€5,Female,English,,Chrome,Windows,864,1536,8.982016666666667,
13,condition1,Exp,,GirlAllMichaelPencils,,3,9,all,,AOI4,AOI10,all,,25,44-22,Michael's,,Click on the girl that has all of Michael's pencils,1,3_erasers,girl,2_rulers,3_scissors,2_pencils,1_eraser,1_scissor,boy,boy,girl,,,,,,,,girl with pencils,6584,stationeries,small,,4,10,,girl,,2_pencils,30,[],18,Yes,,0,1,€5,Female,English,,Chrome,Windows,864,1536,8.982016666666667,
13,condition1,Exp,,GirlTwoMichaelRulers,,4,10,num,,AOI3,AOI9,two,,9,33-33,Michael's,,Click on the girl that has two of Michael's rulers,1,3_pencils,girl,2_scissors,2_rulers,3_erasers,1_ruler,1_scissor,boy,boy,girl,,,,,,,,girl with rulers,7000,stationeries,small,,3,9,,girl,,2_rulers,31,[],18,Yes,,0,1,€5,Female,English,,Chrome,Windows,864,1536,8.982016666666667,
13,condition1,Exp,,GirlTwoSusanBananas,,3,9,num,,AOI4,AOI10,two,,5,33-33,Susan's,,Click on the girl that has two of Susan's bananas,1,2_pears,girl,3_apples,3_oranges,2_bananas,1_banana,1_pear,boy,boy,girl,,,,,,,,girl with bananas,6272,fruit,small,,4,10,,girl,,2_bananas,32,[],18,Yes,,0,1,€5,Female,English,,Chrome,Windows,864,1536,8.982016666666667,
13,condition1,Filler,,BoyFourMichaelScissors,,2,8,four,,AOI1,AOI7,four,,43,44-22,Michael's,,Click on the boy that has four of Michael's scissors,1,4_scissors,girl,1_pencil,2_rulers,3_erasers,1_pencil,1_eraser,boy,boy,girl,,,,,,,,boy with scissors,8403,stationeries,big,,1,7,,boy,,4_scissors,33,[],18,Yes,,0,1,€5,Female,English,,Chrome,Windows,864,1536,8.982016666666667,
13,condition1,Filler,,BoyOneAmySpoons,,1,7,one,,AOI2,AOI8,one,,39,33-33,Amy's,,Click on the boy that has one of Amy's spoons,1,3_forks,girl,1_spoon,3_plates,3_knives,2_spoons,0,boy,boy,girl,,,,,,,,boy with spoon,5322,kitchenwares,small,,2,8,,boy,,1_spoon,34,[],18,Yes,,0,1,€5,Female,English,,Chrome,Windows,864,1536,8.982016666666667,
13,condition1,Exp,,GirlSomeSusanApples,,4,10,some,,AOI3,AOI9,some,,20,44-22,Susan's,,Click on the girl that has some of Susan's apples,1,3_pears,girl,2_bananas,3_apples,2_oranges,1_apple,1_pear,boy,boy,girl,,,,,,,,girl with apples,4242,fruit,big,,3,9,,girl,,3_apples,35,[],18,Yes,,0,1,€5,Female,English,,Chrome,Windows,864,1536,8.982016666666667,
13,condition1,Exp,,GirlSomeMichaelRulers,,3,9,some,,AOI4,AOI10,some,,30,44-22,Michael's,,Click on the girl that has some of Michael's rulers,1,3_erasers,girl,2_pencils,2_scissors,3_rulers,1_ruler,1_eraser,boy,boy,girl,,,,,,,,girl with rulers,6680,stationeries,big,,4,10,,girl,,3_rulers,36,[],18,Yes,,0,1,€5,Female,English,,Chrome,Windows,864,1536,8.982016666666667,
13,condition1,Exp,,GirlAllAmySpoons,,4,10,all,,AOI3,AOI9,all,,36,44-22,Amy's,,Click on the girl that has all of Amy's spoons,1,3_plates,girl,2_knives,2_spoons,3_forks,1_plate,1_fork,boy,boy,girl,,,,,,,,girl with spoons,6002,kitchenwares,small,,3,9,,girl,,2_spoons,37,[],18,Yes,,0,1,€5,Female,English,,Chrome,Windows,864,1536,8.982016666666667,
13,condition1,Exp,,BoyAllSusanApples,,2,8,all,,AOI1,AOI7,all,,22,44-22,Susan's,,Click on the boy that has all of Susan's apples,1,2_apples,girl,3_pears,3_oranges,2_bananas,1_orange,1_pear,boy,boy,girl,,,,,,,,boy with apples,6267,fruit,small,,1,7,,boy,,2_apples,38,[],18,Yes,,0,1,€5,Female,English,,Chrome,Windows,864,1536,8.982016666666667,
13,condition1,Filler,,GirlFourAmyPlates,,3,9,four,,AOI4,AOI10,four,,47,44-22,Amy's,,Click on the girl that has four of Amy's plates,1,1_knife,girl,3_forks,2_spoons,4_plates,1_knife,1_fork,boy,boy,girl,,,,,,,,girl with plates,6233,kitchenwares,big,,4,10,,girl,,4_plates,39,[],18,Yes,,0,1,€5,Female,English,,Chrome,Windows,864,1536,8.982016666666667,
13,condition1,Exp,,BoyAllAmyKnives,,2,8,all,,AOI1,AOI7,all,,18,33-33,Amy's,,Click on the boy that has all of Amy's knives,1,3_knives,girl,2_plates,3_spoons,2_forks,1_plate,1_fork,boy,boy,girl,,,,,,,,boy with knives,5100,kitchenwares,big,,1,7,,boy,,3_knives,40,[],18,Yes,,0,1,€5,Female,English,,Chrome,Windows,864,1536,8.982016666666667,
13,condition1,Filler,,GirlOneSusanPears,,3,9,one,,AOI4,AOI10,one,,42,33-33,Susan's,,Click on the girl that has one of Susan's pears,1,3_bananas,girl,3_oranges,3_apples,1_pear,2_pears,0,boy,boy,girl,,,,,,,,girl with pear,5910,fruit,small,,4,10,,girl,,1_pear,41,[],18,Yes,,0,1,€5,Female,English,,Chrome,Windows,864,1536,8.982016666666667,
13,condition1,Exp,,BoySomeMichaelPencils,,2,8,some,,AOI1,AOI7,some,,29,44-22,Michael's,,Click on the boy that has some of Michael's pencils,1,3_pencils,girl,2_erasers,3_scissors,2_rulers,1_pencil,1_scissor,boy,boy,girl,,,,,,,,boy with pencils,6390,stationeries,big,,1,7,,boy,,3_pencils,42,[],18,Yes,,0,1,€5,Female,English,,Chrome,Windows,864,1536,8.982016666666667,
13,condition1,Filler,,BoyOneMichaelRulers,,1,7,one,,AOI2,AOI8,one,,40,33-33,Michael's,,Click on the boy that has one of Michael's rulers,1,3_erasers,girl,1_ruler,3_pencils,3_scissors,2_scissors,0,boy,boy,girl,,,,,,,,boy with ruler,4079,stationeries,small,,2,8,,boy,,1_ruler,43,[],18,Yes,,0,1,€5,Female,English,,Chrome,Windows,864,1536,8.982016666666667,
13,condition1,Exp,,BoySomeSusanPears,,2,8,some,,AOI1,AOI7,some,,1,33-33,Susan's,,Click on the boy that has some of Susan's pears,1,2_pears,girl,3_bananas,2_apples,3_oranges,1_apple,1_pear,boy,boy,girl,,,,,,,,boy with pears,5958,fruit,small,,1,7,,boy,,2_pears,44,[],18,Yes,,0,1,€5,Female,English,,Chrome,Windows,864,1536,8.982016666666667,
13,condition1,Filler,,BoyOneAmyPlates,,2,8,one,,AOI1,AOI7,one,,38,33-33,Amy's,,Click on the boy that has one of Amy's plates,1,1_plate,girl,3_knives,3_forks,3_spoons,2_plates,0,boy,boy,girl,,,,,,,,boy with plate,5471,kitchenwares,small,,1,7,,boy,,1_plate,45,[],18,Yes,,0,1,€5,Female,English,,Chrome,Windows,864,1536,8.982016666666667,
13,condition1,Exp,,BoyThreeAmyPlates,,2,8,num,,AOI1,AOI7,three,,31,44-22,Amy's,,Click on the boy that has three of Amy's plates,1,3_plates,girl,2_forks,3_spoons,2_knives,1_spoon,1_plate,boy,boy,girl,,,,,,,,boy with plates,5269,kitchenwares,big,,1,7,,boy,,3_plates,46,[],18,Yes,,0,1,€5,Female,English,,Chrome,Windows,864,1536,8.982016666666667,
13,condition1,Exp,,BoySomeMichaelScissors,,1,7,some,,AOI2,AOI8,some,,12,33-33,Michael's,,Click on the boy that has some of Michael's scissors,1,3_rulers,girl,2_scissors,2_pencils,3_erasers,1_pencil,1_scissor,boy,boy,girl,,,,,,,,boy with scissors,5303,stationeries,small,,2,8,,boy,,2_scissors,47,[],18,Yes,,0,1,€5,Female,English,,Chrome,Windows,864,1536,8.982016666666667,
13,condition1,Filler,,GirlOneMichaelErasers,,4,10,one,,AOI3,AOI9,one,,41,33-33,Michael's,,Click on the girl that has one of Michael's erasers,1,3_pencils,girl,3_scissors,1_eraser,3_rulers,2_erasers,0,boy,boy,girl,,,,,,,,girl with rubbers,6171,stationeries,small,,3,9,,girl,,1_eraser,48,[],18,Yes,,0,1,€5,Female,English,,Chrome,Windows,864,1536,8.982016666666667,
