workerid,proliferate.condition,ExpFiller,Intro_object,Prime,Res_object,competitor1,competitor2,condition,condition1,correctAns1,correctAns2,determiner,determiner1,displayID,display_type,figure,instruction1,instruction3,list,location1,location10,location2,location3,location4,location5,location6,location7,location8,location9,object1,object2,object3,object4,practiceTrialType,practice_trial_number,prime,response,response_times,setting,size,size1,target1,target2,target_figure1,target_figure3,target_object1,target_object3,trial_number,catch_trials,subject_information.age,subject_information.asses,subject_information.comments,subject_information.education,subject_information.enjoyment,subject_information.fairprice,subject_information.gender,subject_information.language,subject_information.problems,system.Browser,system.OS,system.screenH,system.screenW,time_in_minutes,error
54,List1,Prac,kitchware_Amy_Monday,,Residue_kitchen,4,,,num,AOI3,AOI9,,three,5,44-22,Amy,Click on the girl that has three of Amy's knives,,,2_spoons,girl,3_forks,3_knives,2_plates,1_fork,1_knife,boy,boy,girl,knives,D4_forks,D2_spoons,D4_knives,production practice,1,GirlThreeAmyknives,girl with three knives,,kitchenwares,,big,3,,girl,,3_knives,,,[],43,Yes,,4,1,$3,Male,English,no,Chrome,Windows,1080,1920,6.857083333333334,
54,List1,Prac,kitchware_Amy_Tuesday,,Slience,2,,,some,AOI4,AOI10,,some,6,33-33,Amy,Click on the girl that has some of Amy's forks,,,3_spoons,girl,2_knives,3_plates,2_forks,1_fork,1_knife,boy,boy,girl,forks,D3_forks,D3_spoons,D3_knives,production practice,2,GirlSomeAmyforks,girl with two forks,,kitchenwares,,big,4,,girl,,2_forks,,,[],43,Yes,,4,1,$3,Male,English,no,Chrome,Windows,1080,1920,6.857083333333334,
54,List1,Exp,,BoySomeSusanPears,,2,8,some,,AOI1,AOI7,some,,1,33-33,Susan's,,Click on the boy that has some of Susan's pears,1,2_pears,girl,3_bananas,2_apples,3_oranges,1_apple,1_pear,boy,boy,girl,,,,,,,,child with the two green pears,18672,fruit,small,,1,7,,boy,,2_pears,1,[],43,Yes,,4,1,$3,Male,English,no,Chrome,Windows,1080,1920,6.857083333333334,
54,List1,Exp,,GirlAllAmySpoons,,4,10,all,,AOI3,AOI9,all,,36,44-22,Amy's,,Click on the girl that has all of Amy's spoons,1,3_plates,girl,2_knives,2_spoons,3_forks,1_plate,1_fork,boy,boy,girl,,,,,,,,child with the spoons,12474,kitchenwares,small,,3,9,,girl,,2_spoons,2,[],43,Yes,,4,1,$3,Male,English,no,Chrome,Windows,1080,1920,6.857083333333334,
54,List1,Exp,,GirlAllAmyPlates,,3,9,all,,AOI4,AOI10,all,,35,44-22,Amy's,,Click on the girl that has all of Amy's plates,1,3_spoons,girl,2_forks,3_knives,2_plates,1_spoon,1_knife,boy,boy,girl,,,,,,,,child with the plates,13014,kitchenwares,small,,4,10,,girl,,2_plates,3,[],43,Yes,,4,1,$3,Male,English,no,Chrome,Windows,1080,1920,6.857083333333334,
54,List1,Exp,,BoyAllMichaelScissors,,2,8,all,,AOI1,AOI7,all,,7,33-33,Michael's,,Click on the boy that has all of Michael's scissors,1,3_scissors,girl,2_pencils,3_erasers,2_rulers,1_pencil,1_ruler,boy,boy,girl,,,,,,,,child with three scissors,23751,stationeries,big,,1,7,,boy,,3_scissors,4,[],43,Yes,,4,1,$3,Male,English,no,Chrome,Windows,1080,1920,6.857083333333334,
54,List1,Exp,,BoyThreeMichaelErasers,,1,7,num,,AOI2,AOI8,three,,27,44-22,Michael's,,Click on the boy that has three of Michael's erasers,1,2_rulers,girl,3_erasers,2_scissors,3_pencils,1_pencil,1_eraser,boy,boy,girl,,,,,,,,child with three erasers,5968,stationeries,big,,2,8,,boy,,3_erasers,5,[],43,Yes,,4,1,$3,Male,English,no,Chrome,Windows,1080,1920,6.857083333333334,
54,List1,Filler,,GirlOneSusanPears,,3,9,one,,AOI4,AOI10,one,,42,33-33,Susan's,,Click on the girl that has one of Susan's pears,1,3_bananas,girl,3_oranges,3_apples,1_pear,2_pears,0,boy,boy,girl,,,,,,,,child with one pear,4737,fruit,small,,4,10,,girl,,1_pear,6,[],43,Yes,,4,1,$3,Male,English,no,Chrome,Windows,1080,1920,6.857083333333334,
54,List1,Exp,,GirlSomeAmyForks,,4,10,some,,AOI3,AOI9,some,,34,44-22,Amy's,,Click on the girl that has some of Amy's forks,1,2_spoons,girl,3_plates,3_forks,2_knives,1_fork,1_plate,boy,boy,girl,,,,,,,,child with three forks,4941,kitchenwares,big,,3,9,,girl,,3_forks,7,[],43,Yes,,4,1,$3,Male,English,no,Chrome,Windows,1080,1920,6.857083333333334,
54,List1,Filler,,GirlFourSusanOranges,,4,10,four,,AOI3,AOI9,four,,45,44-22,Susan's,,Click on the girl that has four of Susan's oranges,1,2_pears,girl,3_apples,4_oranges,1_banana,1_banana,1_apple,boy,boy,girl,,,,,,,,child with four oranges,5345,fruit,big,,3,9,,girl,,4_oranges,8,[],43,Yes,,4,1,$3,Male,English,no,Chrome,Windows,1080,1920,6.857083333333334,
54,List1,Exp,,GirlSomeSusanApples,,4,10,some,,AOI3,AOI9,some,,20,44-22,Susan's,,Click on the girl that has some of Susan's apples,1,3_pears,girl,2_bananas,3_apples,2_oranges,1_apple,1_pear,boy,boy,girl,,,,,,,,child with three apples,9816,fruit,big,,3,9,,girl,,3_apples,9,[],43,Yes,,4,1,$3,Male,English,no,Chrome,Windows,1080,1920,6.857083333333334,
54,List1,Exp,,GirlSomeMichaelRulers,,3,9,some,,AOI4,AOI10,some,,30,44-22,Michael's,,Click on the girl that has some of Michael's rulers,1,3_erasers,girl,2_pencils,2_scissors,3_rulers,1_ruler,1_eraser,boy,boy,girl,,,,,,,,child with three rulers,4455,stationeries,big,,4,10,,girl,,3_rulers,10,[],43,Yes,,4,1,$3,Male,English,no,Chrome,Windows,1080,1920,6.857083333333334,
54,List1,Exp,,BoyTwoSusanApples,,2,8,num,,AOI1,AOI7,two,,24,44-22,Susan's,,Click on the boy that has two of Susan's apples,1,2_apples,girl,3_pears,3_bananas,2_oranges,1_banana,1_pear,boy,boy,girl,,,,,,,,child with two apples,4768,fruit,small,,1,7,,boy,,2_apples,11,[],43,Yes,,4,1,$3,Male,English,no,Chrome,Windows,1080,1920,6.857083333333334,
54,List1,Filler,,GirlFourMichaelPencils,,3,9,four,,AOI4,AOI10,four,,48,44-22,Michael's,,Click on the girl that has four of Michael's pencils,1,1_ruler,girl,2_erasers,3_scissors,4_pencils,1_ruler,1_scissor,boy,boy,girl,,,,,,,,child with four pens,6841,stationeries,big,,4,10,,girl,,4_pencils,12,[],43,Yes,,4,1,$3,Male,English,no,Chrome,Windows,1080,1920,6.857083333333334,
54,List1,Exp,,BoyThreeAmyKnives,,1,7,num,,AOI2,AOI8,three,,14,33-33,Amy's,,Click on the boy that has three of Amy's knives,1,2_spoons,girl,3_knives,2_plates,3_forks,1_spoon,1_plate,boy,boy,girl,,,,,,,,child with three knives,5152,kitchenwares,big,,2,8,,boy,,3_knives,13,[],43,Yes,,4,1,$3,Male,English,no,Chrome,Windows,1080,1920,6.857083333333334,
54,List1,Exp,,GirlThreeSusanPears,,3,9,num,,AOI4,AOI10,three,,6,33-33,Susan's,,Click on the girl that has three of Susan's pears,1,2_oranges,girl,3_bananas,2_apples,3_pears,1_apple,1_orange,boy,boy,girl,,,,,,,,child with three pears,6560,fruit,big,,4,10,,girl,,3_pears,14,[],43,Yes,,4,1,$3,Male,English,no,Chrome,Windows,1080,1920,6.857083333333334,
54,List1,Exp,,GirlThreeSusanOranges,,4,10,num,,AOI3,AOI9,three,,23,44-22,Susan's,,Click on the girl that has three of Susan's oranges,1,3_apples,girl,2_pears,3_oranges,2_bananas,1_apple,1_orange,boy,boy,girl,,,,,,,,child with three oranges,5287,fruit,big,,3,9,,girl,,3_oranges,15,[],43,Yes,,4,1,$3,Male,English,no,Chrome,Windows,1080,1920,6.857083333333334,
54,List1,Exp,,GirlTwoSusanBananas,,3,9,num,,AOI4,AOI10,two,,5,33-33,Susan's,,Click on the girl that has two of Susan's bananas,1,2_pears,girl,3_apples,3_oranges,2_bananas,1_banana,1_pear,boy,boy,girl,,,,,,,,child with two bananas,4376,fruit,small,,4,10,,girl,,2_bananas,16,[],43,Yes,,4,1,$3,Male,English,no,Chrome,Windows,1080,1920,6.857083333333334,
54,List1,Filler,,GirlFourAmyKnives,,4,10,four,,AOI3,AOI9,four,,46,44-22,Amy's,,Click on the girl that has four of Amy's knives,1,1_spoon,girl,3_plates,4_knives,2_forks,1_spoon,1_plate,boy,boy,girl,,,,,,,,child with four knives,4361,kitchenwares,big,,3,9,,girl,,4_knives,17,[],43,Yes,,4,1,$3,Male,English,no,Chrome,Windows,1080,1920,6.857083333333334,
54,List1,Filler,,GirlOneMichaelErasers,,4,10,one,,AOI3,AOI9,one,,41,33-33,Michael's,,Click on the girl that has one of Michael's erasers,1,3_pencils,girl,3_scissors,1_eraser,3_rulers,2_erasers,0,boy,boy,girl,,,,,,,,child with one eraser,4615,stationeries,small,,3,9,,girl,,1_eraser,18,[],43,Yes,,4,1,$3,Male,English,no,Chrome,Windows,1080,1920,6.857083333333334,
54,List1,Exp,,BoyTwoMichaelPencils,,1,7,num,,AOI2,AOI8,two,,28,44-22,Michael's,,Click on the boy that has two of Michael's pencils,1,3_scissors,girl,2_pencils,2_erasers,3_rulers,1_ruler,1_scissor,boy,boy,girl,,,,,,,,child with two pens,2599,stationeries,small,,2,8,,boy,,2_pencils,19,[],43,Yes,,4,1,$3,Male,English,no,Chrome,Windows,1080,1920,6.857083333333334,
54,List1,Exp,,BoyAllAmyKnives,,2,8,all,,AOI1,AOI7,all,,18,33-33,Amy's,,Click on the boy that has all of Amy's knives,1,3_knives,girl,2_plates,3_spoons,2_forks,1_plate,1_fork,boy,boy,girl,,,,,,,,child with three knives,5713,kitchenwares,big,,1,7,,boy,,3_knives,20,[],43,Yes,,4,1,$3,Male,English,no,Chrome,Windows,1080,1920,6.857083333333334,
54,List1,Exp,,GirlAllSusanBananas,,4,10,all,,AOI3,AOI9,all,,4,33-33,Susan's,,Click on the girl that has all of Susan's bananas,1,2_pears,girl,3_apples,3_bananas,2_oranges,1_orange,1_pear,boy,boy,girl,,,,,,,,child with three bananas,6903,fruit,big,,3,9,,girl,,3_bananas,21,[],43,Yes,,4,1,$3,Male,English,no,Chrome,Windows,1080,1920,6.857083333333334,
54,List1,Filler,,BoyOneAmyPlates,,2,8,one,,AOI1,AOI7,one,,38,33-33,Amy's,,Click on the boy that has one of Amy's plates,1,1_plate,girl,3_knives,3_forks,3_spoons,2_plates,0,boy,boy,girl,,,,,,,,child with one plate,3240,kitchenwares,small,,1,7,,boy,,1_plate,22,[],43,Yes,,4,1,$3,Male,English,no,Chrome,Windows,1080,1920,6.857083333333334,
54,List1,Filler,,GirlFourAmyPlates,,3,9,four,,AOI4,AOI10,four,,47,44-22,Amy's,,Click on the girl that has four of Amy's plates,1,1_knife,girl,3_forks,2_spoons,4_plates,1_knife,1_fork,boy,boy,girl,,,,,,,,child with four plates,3784,kitchenwares,big,,4,10,,girl,,4_plates,23,[],43,Yes,,4,1,$3,Male,English,no,Chrome,Windows,1080,1920,6.857083333333334,
54,List1,Exp,,BoySomeMichaelErasers,,2,8,some,,AOI1,AOI7,some,,11,33-33,Michael's,,Click on the boy that has some of Michael's erasers,1,2_erasers,girl,3_pencils,2_rulers,3_scissors,1_ruler,1_eraser,boy,boy,girl,,,,,,,,child with two erasers,6418,stationeries,small,,1,7,,boy,,2_erasers,24,[],43,Yes,,4,1,$3,Male,English,no,Chrome,Windows,1080,1920,6.857083333333334,
54,List1,Exp,,BoySomeMichaelPencils,,2,8,some,,AOI1,AOI7,some,,29,44-22,Michael's,,Click on the boy that has some of Michael's pencils,1,3_pencils,girl,2_erasers,3_scissors,2_rulers,1_pencil,1_scissor,boy,boy,girl,,,,,,,,child with three pens,3414,stationeries,big,,1,7,,boy,,3_pencils,25,[],43,Yes,,4,1,$3,Male,English,no,Chrome,Windows,1080,1920,6.857083333333334,
54,List1,Exp,,GirlAllMichaelErasers,,4,10,all,,AOI3,AOI9,all,,26,44-22,Michael's,,Click on the girl that has all of Michael's erasers,1,3_pencils,girl,2_scissors,2_erasers,3_rulers,1_pencil,1_ruler,boy,boy,girl,,,,,,,,child with two erasers,5633,stationeries,small,,3,9,,girl,,2_erasers,26,[],43,Yes,,4,1,$3,Male,English,no,Chrome,Windows,1080,1920,6.857083333333334,
54,List1,Exp,,BoyThreeAmyPlates,,2,8,num,,AOI1,AOI7,three,,31,44-22,Amy's,,Click on the boy that has three of Amy's plates,1,3_plates,girl,2_forks,3_spoons,2_knives,1_spoon,1_plate,boy,boy,girl,,,,,,,,child with three plates,3815,kitchenwares,big,,1,7,,boy,,3_plates,27,[],43,Yes,,4,1,$3,Male,English,no,Chrome,Windows,1080,1920,6.857083333333334,
54,List1,Exp,,BoyAllSusanApples,,2,8,all,,AOI1,AOI7,all,,22,44-22,Susan's,,Click on the boy that has all of Susan's apples,1,2_apples,girl,3_pears,3_oranges,2_bananas,1_orange,1_pear,boy,boy,girl,,,,,,,,child with two apples,5784,fruit,small,,1,7,,boy,,2_apples,28,[],43,Yes,,4,1,$3,Male,English,no,Chrome,Windows,1080,1920,6.857083333333334,
54,List1,Exp,,GirlSomeAmyKnives,,4,10,some,,AOI3,AOI9,some,,15,33-33,Amy's,,Click on the girl that has some of Amy's knives,1,2_spoons,girl,3_plates,2_knives,3_forks,1_spoon,1_knife,boy,boy,girl,,,,,,,,child with two nives,3240,kitchenwares,small,,3,9,,girl,,2_knives,29,[],43,Yes,,4,1,$3,Male,English,no,Chrome,Windows,1080,1920,6.857083333333334,
54,List1,Exp,,BoyTwoAmySpoons,,2,8,num,,AOI1,AOI7,two,,32,44-22,Amy's,,Click on the boy that has two of Amy's spoons,1,2_spoons,girl,3_knives,3_forks,2_plates,1_fork,1_knife,boy,boy,girl,,,,,,,,child with two spoons,5033,kitchenwares,small,,1,7,,boy,,2_spoons,30,[],43,Yes,,4,1,$3,Male,English,no,Chrome,Windows,1080,1920,6.857083333333334,
54,List1,Filler,,BoyOneSusanApples,,2,8,one,,AOI1,AOI7,one,,37,33-33,Susan's,,Click on the boy that has one of Susan's apples,1,1_apple,girl,3_pears,3_bananas,3_oranges,2_apples,0,boy,boy,girl,,,,,,,,child with one apple,5207,fruit,small,,1,7,,boy,,1_apple,31,[],43,Yes,,4,1,$3,Male,English,no,Chrome,Windows,1080,1920,6.857083333333334,
54,List1,Exp,,BoySomeAmySpoons,,1,7,some,,AOI2,AOI8,some,,33,44-22,Amy's,,Click on the boy that has some of Amy's spoons,1,2_plates,girl,3_spoons,2_forks,3_knives,1_spoon,1_knife,boy,boy,girl,,,,,,,,child with three spoons,3553,kitchenwares,big,,2,8,,boy,,3_spoons,32,[],43,Yes,,4,1,$3,Male,English,no,Chrome,Windows,1080,1920,6.857083333333334,
54,List1,Exp,,BoySomeSusanOranges,,1,7,some,,AOI2,AOI8,some,,2,33-33,Susan's,,Click on the boy that has some of Susan's oranges,1,3_apples,girl,2_oranges,2_bananas,3_pears,1_banana,1_orange,boy,boy,girl,,,,,,,,child with two oranges,3632,fruit,small,,2,8,,boy,,2_oranges,33,[],43,Yes,,4,1,$3,Male,English,no,Chrome,Windows,1080,1920,6.857083333333334,
54,List1,Exp,,BoySomeMichaelScissors,,1,7,some,,AOI2,AOI8,some,,12,33-33,Michael's,,Click on the boy that has some of Michael's scissors,1,3_rulers,girl,2_scissors,2_pencils,3_erasers,1_pencil,1_scissor,boy,boy,girl,,,,,,,,child with two scissors,4719,stationeries,small,,2,8,,boy,,2_scissors,34,[],43,Yes,,4,1,$3,Male,English,no,Chrome,Windows,1080,1920,6.857083333333334,
54,List1,Exp,,GirlAllMichaelRulers,,3,9,all,,AOI4,AOI10,all,,8,33-33,Michael's,,Click on the girl that has all of Michael's rulers,1,2_scissors,girl,3_pencils,2_erasers,3_rulers,1_eraser,1_scissor,boy,boy,girl,,,,,,,,three rulers,3536,stationeries,big,,4,10,,girl,,3_rulers,35,[],43,Yes,,4,1,$3,Male,English,no,Chrome,Windows,1080,1920,6.857083333333334,
54,List1,Exp,,GirlAllMichaelPencils,,3,9,all,,AOI4,AOI10,all,,25,44-22,Michael's,,Click on the girl that has all of Michael's pencils,1,3_erasers,girl,2_rulers,3_scissors,2_pencils,1_eraser,1_scissor,boy,boy,girl,,,,,,,,child with two pens,4632,stationeries,small,,4,10,,girl,,2_pencils,36,[],43,Yes,,4,1,$3,Male,English,no,Chrome,Windows,1080,1920,6.857083333333334,
54,List1,Exp,,GirlThreeMichaelScissors,,4,10,num,,AOI3,AOI9,three,,10,33-33,Michael's,,Click on the girl that has three of Michael's scissors,1,3_rulers,girl,2_erasers,3_scissors,2_pencils,1_pencil,1_eraser,boy,boy,girl,,,,,,,,child with three scissors,6961,stationeries,big,,3,9,,girl,,3_scissors,37,[],43,Yes,,4,1,$3,Male,English,no,Chrome,Windows,1080,1920,6.857083333333334,
54,List1,Exp,,BoyAllSusanOranges,,1,7,all,,AOI2,AOI8,all,,21,44-22,Susan's,,Click on the boy that has all of Susan's oranges,1,3_bananas,girl,2_oranges,3_apples,2_pears,1_apple,1_banana,boy,boy,girl,,,,,,,,child with two oranges,3639,fruit,small,,2,8,,boy,,2_oranges,38,[],43,Yes,,4,1,$3,Male,English,no,Chrome,Windows,1080,1920,6.857083333333334,
54,List1,Filler,,BoyFourSusanBananas,,1,7,four,,AOI2,AOI8,four,,44,44-22,Susan's,,Click on the boy that has four of Susan's bananas,1,1_orange,girl,4_bananas,3_pears,2_apples,1_orange,1_pear,boy,boy,girl,,,,,,,,child with four bananas,4441,fruit,big,,2,8,,boy,,4_bananas,39,[],43,Yes,,4,1,$3,Male,English,no,Chrome,Windows,1080,1920,6.857083333333334,
54,List1,Exp,,GirlSomeSusanBananas,,3,9,some,,AOI4,AOI10,some,,19,44-22,Susan's,,Click on the girl that has some of Susan's bananas,1,3_oranges,girl,2_apples,2_pears,3_bananas,1_banana,1_orange,boy,boy,girl,,,,,,,,child with three bananas,5793,fruit,big,,4,10,,girl,,3_bananas,40,[],43,Yes,,4,1,$3,Male,English,no,Chrome,Windows,1080,1920,6.857083333333334,
54,List1,Exp,,BoyAllSusanPears,,1,7,all,,AOI2,AOI8,all,,3,33-33,Susan's,,Click on the boy that has all of Susan's pears,1,2_apples,girl,3_pears,2_bananas,3_oranges,1_apple,1_banana,boy,boy,girl,,,,,,,,child with 3 pears,5327,fruit,big,,2,8,,boy,,3_pears,41,[],43,Yes,,4,1,$3,Male,English,no,Chrome,Windows,1080,1920,6.857083333333334,
54,List1,Exp,,GirlSomeAmyPlates,,3,9,some,,AOI4,AOI10,some,,16,33-33,Amy's,,Click on the girl that has some of Amy's plates,1,2_forks,girl,3_knives,3_spoons,2_plates,1_fork,1_plate,boy,boy,girl,,,,,,,,child with 2 plates,8336,kitchenwares,small,,4,10,,girl,,2_plates,42,[],43,Yes,,4,1,$3,Male,English,no,Chrome,Windows,1080,1920,6.857083333333334,
54,List1,Exp,,GirlTwoMichaelRulers,,4,10,num,,AOI3,AOI9,two,,9,33-33,Michael's,,Click on the girl that has two of Michael's rulers,1,3_pencils,girl,2_scissors,2_rulers,3_erasers,1_ruler,1_scissor,boy,boy,girl,,,,,,,,child with two rulers,6064,stationeries,small,,3,9,,girl,,2_rulers,43,[],43,Yes,,4,1,$3,Male,English,no,Chrome,Windows,1080,1920,6.857083333333334,
54,List1,Exp,,BoyAllAmyForks,,1,7,all,,AOI2,AOI8,all,,17,33-33,Amy's,,Click on the boy that has all of Amy's forks,1,2_spoons,girl,3_forks,2_knives,3_plates,1_spoon,1_knife,boy,boy,girl,,,,,,,,child with 3 forks,3384,kitchenwares,big,,2,8,,boy,,3_forks,44,[],43,Yes,,4,1,$3,Male,English,no,Chrome,Windows,1080,1920,6.857083333333334,
54,List1,Filler,,BoyFourMichaelScissors,,2,8,four,,AOI1,AOI7,four,,43,44-22,Michael's,,Click on the boy that has four of Michael's scissors,1,4_scissors,girl,1_pencil,2_rulers,3_erasers,1_pencil,1_eraser,boy,boy,girl,,,,,,,,child with 4 scissors,4815,stationeries,big,,1,7,,boy,,4_scissors,45,[],43,Yes,,4,1,$3,Male,English,no,Chrome,Windows,1080,1920,6.857083333333334,
54,List1,Filler,,BoyOneAmySpoons,,1,7,one,,AOI2,AOI8,one,,39,33-33,Amy's,,Click on the boy that has one of Amy's spoons,1,3_forks,girl,1_spoon,3_plates,3_knives,2_spoons,0,boy,boy,girl,,,,,,,,child with the spoon,4968,kitchenwares,small,,2,8,,boy,,1_spoon,46,[],43,Yes,,4,1,$3,Male,English,no,Chrome,Windows,1080,1920,6.857083333333334,
54,List1,Filler,,BoyOneMichaelRulers,,1,7,one,,AOI2,AOI8,one,,40,33-33,Michael's,,Click on the boy that has one of Michael's rulers,1,3_erasers,girl,1_ruler,3_pencils,3_scissors,2_scissors,0,boy,boy,girl,,,,,,,,child with the ruler,5520,stationeries,small,,2,8,,boy,,1_ruler,47,[],43,Yes,,4,1,$3,Male,English,no,Chrome,Windows,1080,1920,6.857083333333334,
54,List1,Exp,,GirlTwoAmyForks,,3,9,num,,AOI4,AOI10,two,,13,33-33,Amy's,,Click on the girl that has two of Amy's forks,1,2_knives,girl,3_spoons,3_plates,2_forks,1_fork,1_knife,boy,boy,girl,,,,,,,,child with two forks,6576,kitchenwares,small,,4,10,,girl,,2_forks,48,[],43,Yes,,4,1,$3,Male,English,no,Chrome,Windows,1080,1920,6.857083333333334,
63,List1,Prac,kitchware_Amy_Monday,,Residue_kitchen,4,,,num,AOI3,AOI9,,three,5,44-22,Amy,Click on the girl that has three of Amy's knives,,,2_spoons,girl,3_forks,3_knives,2_plates,1_fork,1_knife,boy,boy,girl,knives,D4_forks,D2_spoons,D4_knives,production practice,1,GirlThreeAmyknives,girl with the knives,,kitchenwares,,big,3,,girl,,3_knives,,,[],25,No,no,2,1,yes,Female,English,no,Chrome,Windows,768,1366,3.3247833333333334,
63,List1,Prac,kitchware_Amy_Tuesday,,Slience,2,,,some,AOI4,AOI10,,some,6,33-33,Amy,Click on the girl that has some of Amy's forks,,,3_spoons,girl,2_knives,3_plates,2_forks,1_fork,1_knife,boy,boy,girl,forks,D3_forks,D3_spoons,D3_knives,production practice,2,GirlSomeAmyforks,girl with the forks,,kitchenwares,,big,4,,girl,,2_forks,,,[],25,No,no,2,1,yes,Female,English,no,Chrome,Windows,768,1366,3.3247833333333334,
63,List1,Filler,,BoyOneAmySpoons,,1,7,one,,AOI2,AOI8,one,,39,33-33,Amy's,,Click on the boy that has one of Amy's spoons,1,3_forks,girl,1_spoon,3_plates,3_knives,2_spoons,0,boy,boy,girl,,,,,,,,boy with spoon,4878,kitchenwares,small,,2,8,,boy,,1_spoon,1,[],25,No,no,2,1,yes,Female,English,no,Chrome,Windows,768,1366,3.3247833333333334,
63,List1,Exp,,GirlAllAmyPlates,,3,9,all,,AOI4,AOI10,all,,35,44-22,Amy's,,Click on the girl that has all of Amy's plates,1,3_spoons,girl,2_forks,3_knives,2_plates,1_spoon,1_knife,boy,boy,girl,,,,,,,,girl with plates,3723,kitchenwares,small,,4,10,,girl,,2_plates,2,[],25,No,no,2,1,yes,Female,English,no,Chrome,Windows,768,1366,3.3247833333333334,
63,List1,Exp,,BoyThreeAmyKnives,,1,7,num,,AOI2,AOI8,three,,14,33-33,Amy's,,Click on the boy that has three of Amy's knives,1,2_spoons,girl,3_knives,2_plates,3_forks,1_spoon,1_plate,boy,boy,girl,,,,,,,,boy with knives,2764,kitchenwares,big,,2,8,,boy,,3_knives,3,[],25,No,no,2,1,yes,Female,English,no,Chrome,Windows,768,1366,3.3247833333333334,
63,List1,Exp,,BoyAllAmyForks,,1,7,all,,AOI2,AOI8,all,,17,33-33,Amy's,,Click on the boy that has all of Amy's forks,1,2_spoons,girl,3_forks,2_knives,3_plates,1_spoon,1_knife,boy,boy,girl,,,,,,,,boy with forks,2143,kitchenwares,big,,2,8,,boy,,3_forks,4,[],25,No,no,2,1,yes,Female,English,no,Chrome,Windows,768,1366,3.3247833333333334,
63,List1,Exp,,GirlSomeAmyKnives,,4,10,some,,AOI3,AOI9,some,,15,33-33,Amy's,,Click on the girl that has some of Amy's knives,1,2_spoons,girl,3_plates,2_knives,3_forks,1_spoon,1_knife,boy,boy,girl,,,,,,,,girl with knives,2409,kitchenwares,small,,3,9,,girl,,2_knives,5,[],25,No,no,2,1,yes,Female,English,no,Chrome,Windows,768,1366,3.3247833333333334,
63,List1,Exp,,BoySomeMichaelScissors,,1,7,some,,AOI2,AOI8,some,,12,33-33,Michael's,,Click on the boy that has some of Michael's scissors,1,3_rulers,girl,2_scissors,2_pencils,3_erasers,1_pencil,1_scissor,boy,boy,girl,,,,,,,,boy with scissors,3433,stationeries,small,,2,8,,boy,,2_scissors,6,[],25,No,no,2,1,yes,Female,English,no,Chrome,Windows,768,1366,3.3247833333333334,
63,List1,Filler,,BoyOneMichaelRulers,,1,7,one,,AOI2,AOI8,one,,40,33-33,Michael's,,Click on the boy that has one of Michael's rulers,1,3_erasers,girl,1_ruler,3_pencils,3_scissors,2_scissors,0,boy,boy,girl,,,,,,,,boy with ruler,2345,stationeries,small,,2,8,,boy,,1_ruler,7,[],25,No,no,2,1,yes,Female,English,no,Chrome,Windows,768,1366,3.3247833333333334,
63,List1,Exp,,GirlAllMichaelRulers,,3,9,all,,AOI4,AOI10,all,,8,33-33,Michael's,,Click on the girl that has all of Michael's rulers,1,2_scissors,girl,3_pencils,2_erasers,3_rulers,1_eraser,1_scissor,boy,boy,girl,,,,,,,,girl with rulers,2598,stationeries,big,,4,10,,girl,,3_rulers,8,[],25,No,no,2,1,yes,Female,English,no,Chrome,Windows,768,1366,3.3247833333333334,
63,List1,Filler,,GirlOneMichaelErasers,,4,10,one,,AOI3,AOI9,one,,41,33-33,Michael's,,Click on the girl that has one of Michael's erasers,1,3_pencils,girl,3_scissors,1_eraser,3_rulers,2_erasers,0,boy,boy,girl,,,,,,,,girl with erasers,3287,stationeries,small,,3,9,,girl,,1_eraser,9,[],25,No,no,2,1,yes,Female,English,no,Chrome,Windows,768,1366,3.3247833333333334,
63,List1,Exp,,GirlSomeAmyPlates,,3,9,some,,AOI4,AOI10,some,,16,33-33,Amy's,,Click on the girl that has some of Amy's plates,1,2_forks,girl,3_knives,3_spoons,2_plates,1_fork,1_plate,boy,boy,girl,,,,,,,,girl with plates,2721,kitchenwares,small,,4,10,,girl,,2_plates,10,[],25,No,no,2,1,yes,Female,English,no,Chrome,Windows,768,1366,3.3247833333333334,
63,List1,Exp,,BoyThreeAmyPlates,,2,8,num,,AOI1,AOI7,three,,31,44-22,Amy's,,Click on the boy that has three of Amy's plates,1,3_plates,girl,2_forks,3_spoons,2_knives,1_spoon,1_plate,boy,boy,girl,,,,,,,,boy with plates,2511,kitchenwares,big,,1,7,,boy,,3_plates,11,[],25,No,no,2,1,yes,Female,English,no,Chrome,Windows,768,1366,3.3247833333333334,
63,List1,Exp,,BoyAllAmyKnives,,2,8,all,,AOI1,AOI7,all,,18,33-33,Amy's,,Click on the boy that has all of Amy's knives,1,3_knives,girl,2_plates,3_spoons,2_forks,1_plate,1_fork,boy,boy,girl,,,,,,,,boy with knives,2586,kitchenwares,big,,1,7,,boy,,3_knives,12,[],25,No,no,2,1,yes,Female,English,no,Chrome,Windows,768,1366,3.3247833333333334,
63,List1,Filler,,GirlFourMichaelPencils,,3,9,four,,AOI4,AOI10,four,,48,44-22,Michael's,,Click on the girl that has four of Michael's pencils,1,1_ruler,girl,2_erasers,3_scissors,4_pencils,1_ruler,1_scissor,boy,boy,girl,,,,,,,,girl with pencils,2487,stationeries,big,,4,10,,girl,,4_pencils,13,[],25,No,no,2,1,yes,Female,English,no,Chrome,Windows,768,1366,3.3247833333333334,
63,List1,Filler,,BoyOneAmyPlates,,2,8,one,,AOI1,AOI7,one,,38,33-33,Amy's,,Click on the boy that has one of Amy's plates,1,1_plate,girl,3_knives,3_forks,3_spoons,2_plates,0,boy,boy,girl,,,,,,,,boy with plate,2963,kitchenwares,small,,1,7,,boy,,1_plate,14,[],25,No,no,2,1,yes,Female,English,no,Chrome,Windows,768,1366,3.3247833333333334,
63,List1,Exp,,BoyAllSusanApples,,2,8,all,,AOI1,AOI7,all,,22,44-22,Susan's,,Click on the boy that has all of Susan's apples,1,2_apples,girl,3_pears,3_oranges,2_bananas,1_orange,1_pear,boy,boy,girl,,,,,,,,boy with apples,2338,fruit,small,,1,7,,boy,,2_apples,15,[],25,No,no,2,1,yes,Female,English,no,Chrome,Windows,768,1366,3.3247833333333334,
63,List1,Filler,,BoyFourSusanBananas,,1,7,four,,AOI2,AOI8,four,,44,44-22,Susan's,,Click on the boy that has four of Susan's bananas,1,1_orange,girl,4_bananas,3_pears,2_apples,1_orange,1_pear,boy,boy,girl,,,,,,,,boy with bananas,3642,fruit,big,,2,8,,boy,,4_bananas,16,[],25,No,no,2,1,yes,Female,English,no,Chrome,Windows,768,1366,3.3247833333333334,
63,List1,Exp,,GirlThreeMichaelScissors,,4,10,num,,AOI3,AOI9,three,,10,33-33,Michael's,,Click on the girl that has three of Michael's scissors,1,3_rulers,girl,2_erasers,3_scissors,2_pencils,1_pencil,1_eraser,boy,boy,girl,,,,,,,,girl with scissors,2731,stationeries,big,,3,9,,girl,,3_scissors,17,[],25,No,no,2,1,yes,Female,English,no,Chrome,Windows,768,1366,3.3247833333333334,
63,List1,Exp,,GirlSomeMichaelRulers,,3,9,some,,AOI4,AOI10,some,,30,44-22,Michael's,,Click on the girl that has some of Michael's rulers,1,3_erasers,girl,2_pencils,2_scissors,3_rulers,1_ruler,1_eraser,boy,boy,girl,,,,,,,,girl with rulers,2430,stationeries,big,,4,10,,girl,,3_rulers,18,[],25,No,no,2,1,yes,Female,English,no,Chrome,Windows,768,1366,3.3247833333333334,
63,List1,Exp,,BoyTwoSusanApples,,2,8,num,,AOI1,AOI7,two,,24,44-22,Susan's,,Click on the boy that has two of Susan's apples,1,2_apples,girl,3_pears,3_bananas,2_oranges,1_banana,1_pear,boy,boy,girl,,,,,,,,boy with apples,2108,fruit,small,,1,7,,boy,,2_apples,19,[],25,No,no,2,1,yes,Female,English,no,Chrome,Windows,768,1366,3.3247833333333334,
63,List1,Exp,,BoyAllMichaelScissors,,2,8,all,,AOI1,AOI7,all,,7,33-33,Michael's,,Click on the boy that has all of Michael's scissors,1,3_scissors,girl,2_pencils,3_erasers,2_rulers,1_pencil,1_ruler,boy,boy,girl,,,,,,,,boy with scissors,3229,stationeries,big,,1,7,,boy,,3_scissors,20,[],25,No,no,2,1,yes,Female,English,no,Chrome,Windows,768,1366,3.3247833333333334,
63,List1,Exp,,BoySomeSusanOranges,,1,7,some,,AOI2,AOI8,some,,2,33-33,Susan's,,Click on the boy that has some of Susan's oranges,1,3_apples,girl,2_oranges,2_bananas,3_pears,1_banana,1_orange,boy,boy,girl,,,,,,,,boy with oranges,3292,fruit,small,,2,8,,boy,,2_oranges,21,[],25,No,no,2,1,yes,Female,English,no,Chrome,Windows,768,1366,3.3247833333333334,
63,List1,Exp,,BoyTwoAmySpoons,,2,8,num,,AOI1,AOI7,two,,32,44-22,Amy's,,Click on the boy that has two of Amy's spoons,1,2_spoons,girl,3_knives,3_forks,2_plates,1_fork,1_knife,boy,boy,girl,,,,,,,,boy with spoon,2373,kitchenwares,small,,1,7,,boy,,2_spoons,22,[],25,No,no,2,1,yes,Female,English,no,Chrome,Windows,768,1366,3.3247833333333334,
63,List1,Exp,,GirlAllMichaelPencils,,3,9,all,,AOI4,AOI10,all,,25,44-22,Michael's,,Click on the girl that has all of Michael's pencils,1,3_erasers,girl,2_rulers,3_scissors,2_pencils,1_eraser,1_scissor,boy,boy,girl,,,,,,,,girl with pencils,2977,stationeries,small,,4,10,,girl,,2_pencils,23,[],25,No,no,2,1,yes,Female,English,no,Chrome,Windows,768,1366,3.3247833333333334,
63,List1,Exp,,GirlThreeSusanPears,,3,9,num,,AOI4,AOI10,three,,6,33-33,Susan's,,Click on the girl that has three of Susan's pears,1,2_oranges,girl,3_bananas,2_apples,3_pears,1_apple,1_orange,boy,boy,girl,,,,,,,,girl with pears,2210,fruit,big,,4,10,,girl,,3_pears,24,[],25,No,no,2,1,yes,Female,English,no,Chrome,Windows,768,1366,3.3247833333333334,
63,List1,Exp,,GirlTwoSusanBananas,,3,9,num,,AOI4,AOI10,two,,5,33-33,Susan's,,Click on the girl that has two of Susan's bananas,1,2_pears,girl,3_apples,3_oranges,2_bananas,1_banana,1_pear,boy,boy,girl,,,,,,,,girl with bananas,4255,fruit,small,,4,10,,girl,,2_bananas,25,[],25,No,no,2,1,yes,Female,English,no,Chrome,Windows,768,1366,3.3247833333333334,
63,List1,Exp,,GirlAllMichaelErasers,,4,10,all,,AOI3,AOI9,all,,26,44-22,Michael's,,Click on the girl that has all of Michael's erasers,1,3_pencils,girl,2_scissors,2_erasers,3_rulers,1_pencil,1_ruler,boy,boy,girl,,,,,,,,girl with erasers,2292,stationeries,small,,3,9,,girl,,2_erasers,26,[],25,No,no,2,1,yes,Female,English,no,Chrome,Windows,768,1366,3.3247833333333334,
63,List1,Exp,,BoySomeSusanPears,,2,8,some,,AOI1,AOI7,some,,1,33-33,Susan's,,Click on the boy that has some of Susan's pears,1,2_pears,girl,3_bananas,2_apples,3_oranges,1_apple,1_pear,boy,boy,girl,,,,,,,,boy with pears,1948,fruit,small,,1,7,,boy,,2_pears,27,[],25,No,no,2,1,yes,Female,English,no,Chrome,Windows,768,1366,3.3247833333333334,
63,List1,Exp,,BoySomeMichaelPencils,,2,8,some,,AOI1,AOI7,some,,29,44-22,Michael's,,Click on the boy that has some of Michael's pencils,1,3_pencils,girl,2_erasers,3_scissors,2_rulers,1_pencil,1_scissor,boy,boy,girl,,,,,,,,boy with pencils,2595,stationeries,big,,1,7,,boy,,3_pencils,28,[],25,No,no,2,1,yes,Female,English,no,Chrome,Windows,768,1366,3.3247833333333334,
63,List1,Exp,,GirlAllAmySpoons,,4,10,all,,AOI3,AOI9,all,,36,44-22,Amy's,,Click on the girl that has all of Amy's spoons,1,3_plates,girl,2_knives,2_spoons,3_forks,1_plate,1_fork,boy,boy,girl,,,,,,,,girl with spoons,2711,kitchenwares,small,,3,9,,girl,,2_spoons,29,[],25,No,no,2,1,yes,Female,English,no,Chrome,Windows,768,1366,3.3247833333333334,
63,List1,Filler,,GirlFourSusanOranges,,4,10,four,,AOI3,AOI9,four,,45,44-22,Susan's,,Click on the girl that has four of Susan's oranges,1,2_pears,girl,3_apples,4_oranges,1_banana,1_banana,1_apple,boy,boy,girl,,,,,,,,girl with oranges,2922,fruit,big,,3,9,,girl,,4_oranges,30,[],25,No,no,2,1,yes,Female,English,no,Chrome,Windows,768,1366,3.3247833333333334,
63,List1,Filler,,BoyOneSusanApples,,2,8,one,,AOI1,AOI7,one,,37,33-33,Susan's,,Click on the boy that has one of Susan's apples,1,1_apple,girl,3_pears,3_bananas,3_oranges,2_apples,0,boy,boy,girl,,,,,,,,boy with apple,2064,fruit,small,,1,7,,boy,,1_apple,31,[],25,No,no,2,1,yes,Female,English,no,Chrome,Windows,768,1366,3.3247833333333334,
63,List1,Filler,,GirlFourAmyKnives,,4,10,four,,AOI3,AOI9,four,,46,44-22,Amy's,,Click on the girl that has four of Amy's knives,1,1_spoon,girl,3_plates,4_knives,2_forks,1_spoon,1_plate,boy,boy,girl,,,,,,,,girl with knives,3490,kitchenwares,big,,3,9,,girl,,4_knives,32,[],25,No,no,2,1,yes,Female,English,no,Chrome,Windows,768,1366,3.3247833333333334,
63,List1,Filler,,GirlOneSusanPears,,3,9,one,,AOI4,AOI10,one,,42,33-33,Susan's,,Click on the girl that has one of Susan's pears,1,3_bananas,girl,3_oranges,3_apples,1_pear,2_pears,0,boy,boy,girl,,,,,,,,girl with pear,2289,fruit,small,,4,10,,girl,,1_pear,33,[],25,No,no,2,1,yes,Female,English,no,Chrome,Windows,768,1366,3.3247833333333334,
63,List1,Exp,,BoySomeMichaelErasers,,2,8,some,,AOI1,AOI7,some,,11,33-33,Michael's,,Click on the boy that has some of Michael's erasers,1,2_erasers,girl,3_pencils,2_rulers,3_scissors,1_ruler,1_eraser,boy,boy,girl,,,,,,,,boy with erasers,2879,stationeries,small,,1,7,,boy,,2_erasers,34,[],25,No,no,2,1,yes,Female,English,no,Chrome,Windows,768,1366,3.3247833333333334,
63,List1,Filler,,GirlFourAmyPlates,,3,9,four,,AOI4,AOI10,four,,47,44-22,Amy's,,Click on the girl that has four of Amy's plates,1,1_knife,girl,3_forks,2_spoons,4_plates,1_knife,1_fork,boy,boy,girl,,,,,,,,girl with plates,2648,kitchenwares,big,,4,10,,girl,,4_plates,35,[],25,No,no,2,1,yes,Female,English,no,Chrome,Windows,768,1366,3.3247833333333334,
63,List1,Filler,,BoyFourMichaelScissors,,2,8,four,,AOI1,AOI7,four,,43,44-22,Michael's,,Click on the boy that has four of Michael's scissors,1,4_scissors,girl,1_pencil,2_rulers,3_erasers,1_pencil,1_eraser,boy,boy,girl,,,,,,,,boy with scissors,3145,stationeries,big,,1,7,,boy,,4_scissors,36,[],25,No,no,2,1,yes,Female,English,no,Chrome,Windows,768,1366,3.3247833333333334,
63,List1,Exp,,GirlThreeSusanOranges,,4,10,num,,AOI3,AOI9,three,,23,44-22,Susan's,,Click on the girl that has three of Susan's oranges,1,3_apples,girl,2_pears,3_oranges,2_bananas,1_apple,1_orange,boy,boy,girl,,,,,,,,girl with oranges,1924,fruit,big,,3,9,,girl,,3_oranges,37,[],25,No,no,2,1,yes,Female,English,no,Chrome,Windows,768,1366,3.3247833333333334,
63,List1,Exp,,BoySomeAmySpoons,,1,7,some,,AOI2,AOI8,some,,33,44-22,Amy's,,Click on the boy that has some of Amy's spoons,1,2_plates,girl,3_spoons,2_forks,3_knives,1_spoon,1_knife,boy,boy,girl,,,,,,,,boy with spoons,2065,kitchenwares,big,,2,8,,boy,,3_spoons,38,[],25,No,no,2,1,yes,Female,English,no,Chrome,Windows,768,1366,3.3247833333333334,
63,List1,Exp,,GirlTwoAmyForks,,3,9,num,,AOI4,AOI10,two,,13,33-33,Amy's,,Click on the girl that has two of Amy's forks,1,2_knives,girl,3_spoons,3_plates,2_forks,1_fork,1_knife,boy,boy,girl,,,,,,,,girl with forks,2176,kitchenwares,small,,4,10,,girl,,2_forks,39,[],25,No,no,2,1,yes,Female,English,no,Chrome,Windows,768,1366,3.3247833333333334,
63,List1,Exp,,BoyAllSusanOranges,,1,7,all,,AOI2,AOI8,all,,21,44-22,Susan's,,Click on the boy that has all of Susan's oranges,1,3_bananas,girl,2_oranges,3_apples,2_pears,1_apple,1_banana,boy,boy,girl,,,,,,,,boy with oranges,2011,fruit,small,,2,8,,boy,,2_oranges,40,[],25,No,no,2,1,yes,Female,English,no,Chrome,Windows,768,1366,3.3247833333333334,
63,List1,Exp,,BoyThreeMichaelErasers,,1,7,num,,AOI2,AOI8,three,,27,44-22,Michael's,,Click on the boy that has three of Michael's erasers,1,2_rulers,girl,3_erasers,2_scissors,3_pencils,1_pencil,1_eraser,boy,boy,girl,,,,,,,,boy with erasers,3322,stationeries,big,,2,8,,boy,,3_erasers,41,[],25,No,no,2,1,yes,Female,English,no,Chrome,Windows,768,1366,3.3247833333333334,
63,List1,Exp,,GirlSomeAmyForks,,4,10,some,,AOI3,AOI9,some,,34,44-22,Amy's,,Click on the girl that has some of Amy's forks,1,2_spoons,girl,3_plates,3_forks,2_knives,1_fork,1_plate,boy,boy,girl,,,,,,,,girl with forks,2109,kitchenwares,big,,3,9,,girl,,3_forks,42,[],25,No,no,2,1,yes,Female,English,no,Chrome,Windows,768,1366,3.3247833333333334,
63,List1,Exp,,GirlSomeSusanBananas,,3,9,some,,AOI4,AOI10,some,,19,44-22,Susan's,,Click on the girl that has some of Susan's bananas,1,3_oranges,girl,2_apples,2_pears,3_bananas,1_banana,1_orange,boy,boy,girl,,,,,,,,girl with bananas,2581,fruit,big,,4,10,,girl,,3_bananas,43,[],25,No,no,2,1,yes,Female,English,no,Chrome,Windows,768,1366,3.3247833333333334,
63,List1,Exp,,BoyTwoMichaelPencils,,1,7,num,,AOI2,AOI8,two,,28,44-22,Michael's,,Click on the boy that has two of Michael's pencils,1,3_scissors,girl,2_pencils,2_erasers,3_rulers,1_ruler,1_scissor,boy,boy,girl,,,,,,,,boy with pencils,2332,stationeries,small,,2,8,,boy,,2_pencils,44,[],25,No,no,2,1,yes,Female,English,no,Chrome,Windows,768,1366,3.3247833333333334,
63,List1,Exp,,GirlTwoMichaelRulers,,4,10,num,,AOI3,AOI9,two,,9,33-33,Michael's,,Click on the girl that has two of Michael's rulers,1,3_pencils,girl,2_scissors,2_rulers,3_erasers,1_ruler,1_scissor,boy,boy,girl,,,,,,,,girl with rulers,3331,stationeries,small,,3,9,,girl,,2_rulers,45,[],25,No,no,2,1,yes,Female,English,no,Chrome,Windows,768,1366,3.3247833333333334,
63,List1,Exp,,GirlSomeSusanApples,,4,10,some,,AOI3,AOI9,some,,20,44-22,Susan's,,Click on the girl that has some of Susan's apples,1,3_pears,girl,2_bananas,3_apples,2_oranges,1_apple,1_pear,boy,boy,girl,,,,,,,,girl with apples,2571,fruit,big,,3,9,,girl,,3_apples,46,[],25,No,no,2,1,yes,Female,English,no,Chrome,Windows,768,1366,3.3247833333333334,
63,List1,Exp,,BoyAllSusanPears,,1,7,all,,AOI2,AOI8,all,,3,33-33,Susan's,,Click on the boy that has all of Susan's pears,1,2_apples,girl,3_pears,2_bananas,3_oranges,1_apple,1_banana,boy,boy,girl,,,,,,,,boy with pears,2421,fruit,big,,2,8,,boy,,3_pears,47,[],25,No,no,2,1,yes,Female,English,no,Chrome,Windows,768,1366,3.3247833333333334,
63,List1,Exp,,GirlAllSusanBananas,,4,10,all,,AOI3,AOI9,all,,4,33-33,Susan's,,Click on the girl that has all of Susan's bananas,1,2_pears,girl,3_apples,3_bananas,2_oranges,1_orange,1_pear,boy,boy,girl,,,,,,,,girl with bnanas,2172,fruit,big,,3,9,,girl,,3_bananas,48,[],25,No,no,2,1,yes,Female,English,no,Chrome,Windows,768,1366,3.3247833333333334,
58,List1,Prac,kitchware_Amy_Monday,,Residue_kitchen,4,,,num,AOI3,AOI9,,three,5,44-22,Amy,Click on the girl that has three of Amy's knives,,,2_spoons,girl,3_forks,3_knives,2_plates,1_fork,1_knife,boy,boy,girl,knives,D4_forks,D2_spoons,D4_knives,production practice,1,GirlThreeAmyknives,girl and three knives.,,kitchenwares,,big,3,,girl,,3_knives,,,[],21,Confused,,3,2,1.00 ,Male,"english, spanish",,Chrome,Windows,1080,1920,6.260233333333334,
58,List1,Prac,kitchware_Amy_Tuesday,,Slience,2,,,some,AOI4,AOI10,,some,6,33-33,Amy,Click on the girl that has some of Amy's forks,,,3_spoons,girl,2_knives,3_plates,2_forks,1_fork,1_knife,boy,boy,girl,forks,D3_forks,D3_spoons,D3_knives,production practice,2,GirlSomeAmyforks,girl and two forks.,,kitchenwares,,big,4,,girl,,2_forks,,,[],21,Confused,,3,2,1.00 ,Male,"english, spanish",,Chrome,Windows,1080,1920,6.260233333333334,
58,List1,Exp,,BoySomeAmySpoons,,1,7,some,,AOI2,AOI8,some,,33,44-22,Amy's,,Click on the boy that has some of Amy's spoons,1,2_plates,girl,3_spoons,2_forks,3_knives,1_spoon,1_knife,boy,boy,girl,,,,,,,,boy and three spoons,5250,kitchenwares,big,,2,8,,boy,,3_spoons,1,[],21,Confused,,3,2,1.00 ,Male,"english, spanish",,Chrome,Windows,1080,1920,6.260233333333334,
58,List1,Exp,,GirlSomeAmyForks,,4,10,some,,AOI3,AOI9,some,,34,44-22,Amy's,,Click on the girl that has some of Amy's forks,1,2_spoons,girl,3_plates,3_forks,2_knives,1_fork,1_plate,boy,boy,girl,,,,,,,,girl and three forks,4970,kitchenwares,big,,3,9,,girl,,3_forks,2,[],21,Confused,,3,2,1.00 ,Male,"english, spanish",,Chrome,Windows,1080,1920,6.260233333333334,
58,List1,Exp,,GirlTwoMichaelRulers,,4,10,num,,AOI3,AOI9,two,,9,33-33,Michael's,,Click on the girl that has two of Michael's rulers,1,3_pencils,girl,2_scissors,2_rulers,3_erasers,1_ruler,1_scissor,boy,boy,girl,,,,,,,,girl and two rulers,4718,stationeries,small,,3,9,,girl,,2_rulers,3,[],21,Confused,,3,2,1.00 ,Male,"english, spanish",,Chrome,Windows,1080,1920,6.260233333333334,
58,List1,Exp,,BoyAllSusanPears,,1,7,all,,AOI2,AOI8,all,,3,33-33,Susan's,,Click on the boy that has all of Susan's pears,1,2_apples,girl,3_pears,2_bananas,3_oranges,1_apple,1_banana,boy,boy,girl,,,,,,,,boy with three pairs,6555,fruit,big,,2,8,,boy,,3_pears,4,[],21,Confused,,3,2,1.00 ,Male,"english, spanish",,Chrome,Windows,1080,1920,6.260233333333334,
58,List1,Exp,,BoyAllSusanOranges,,1,7,all,,AOI2,AOI8,all,,21,44-22,Susan's,,Click on the boy that has all of Susan's oranges,1,3_bananas,girl,2_oranges,3_apples,2_pears,1_apple,1_banana,boy,boy,girl,,,,,,,,boy blushing and two oranges,5510,fruit,small,,2,8,,boy,,2_oranges,5,[],21,Confused,,3,2,1.00 ,Male,"english, spanish",,Chrome,Windows,1080,1920,6.260233333333334,
58,List1,Exp,,BoyAllAmyForks,,1,7,all,,AOI2,AOI8,all,,17,33-33,Amy's,,Click on the boy that has all of Amy's forks,1,2_spoons,girl,3_forks,2_knives,3_plates,1_spoon,1_knife,boy,boy,girl,,,,,,,,boy blushing and three forks,4668,kitchenwares,big,,2,8,,boy,,3_forks,6,[],21,Confused,,3,2,1.00 ,Male,"english, spanish",,Chrome,Windows,1080,1920,6.260233333333334,
58,List1,Exp,,GirlAllMichaelPencils,,3,9,all,,AOI4,AOI10,all,,25,44-22,Michael's,,Click on the girl that has all of Michael's pencils,1,3_erasers,girl,2_rulers,3_scissors,2_pencils,1_eraser,1_scissor,boy,boy,girl,,,,,,,,girl blushing and two penciils,8415,stationeries,small,,4,10,,girl,,2_pencils,7,[],21,Confused,,3,2,1.00 ,Male,"english, spanish",,Chrome,Windows,1080,1920,6.260233333333334,
58,List1,Filler,,BoyFourSusanBananas,,1,7,four,,AOI2,AOI8,four,,44,44-22,Susan's,,Click on the boy that has four of Susan's bananas,1,1_orange,girl,4_bananas,3_pears,2_apples,1_orange,1_pear,boy,boy,girl,,,,,,,,boy blushing and four bannanas.,7373,fruit,big,,2,8,,boy,,4_bananas,8,[],21,Confused,,3,2,1.00 ,Male,"english, spanish",,Chrome,Windows,1080,1920,6.260233333333334,
58,List1,Exp,,BoyAllMichaelScissors,,2,8,all,,AOI1,AOI7,all,,7,33-33,Michael's,,Click on the boy that has all of Michael's scissors,1,3_scissors,girl,2_pencils,3_erasers,2_rulers,1_pencil,1_ruler,boy,boy,girl,,,,,,,,"boy, and three scissors",7189,stationeries,big,,1,7,,boy,,3_scissors,9,[],21,Confused,,3,2,1.00 ,Male,"english, spanish",,Chrome,Windows,1080,1920,6.260233333333334,
58,List1,Exp,,GirlSomeAmyKnives,,4,10,some,,AOI3,AOI9,some,,15,33-33,Amy's,,Click on the girl that has some of Amy's knives,1,2_spoons,girl,3_plates,2_knives,3_forks,1_spoon,1_knife,boy,boy,girl,,,,,,,,girl blushing and two knives,5219,kitchenwares,small,,3,9,,girl,,2_knives,10,[],21,Confused,,3,2,1.00 ,Male,"english, spanish",,Chrome,Windows,1080,1920,6.260233333333334,
58,List1,Exp,,BoyThreeAmyPlates,,2,8,num,,AOI1,AOI7,three,,31,44-22,Amy's,,Click on the boy that has three of Amy's plates,1,3_plates,girl,2_forks,3_spoons,2_knives,1_spoon,1_plate,boy,boy,girl,,,,,,,,boy with three plates,8153,kitchenwares,big,,1,7,,boy,,3_plates,11,[],21,Confused,,3,2,1.00 ,Male,"english, spanish",,Chrome,Windows,1080,1920,6.260233333333334,
58,List1,Exp,,BoyThreeAmyKnives,,1,7,num,,AOI2,AOI8,three,,14,33-33,Amy's,,Click on the boy that has three of Amy's knives,1,2_spoons,girl,3_knives,2_plates,3_forks,1_spoon,1_plate,boy,boy,girl,,,,,,,,boy with three knives,3680,kitchenwares,big,,2,8,,boy,,3_knives,12,[],21,Confused,,3,2,1.00 ,Male,"english, spanish",,Chrome,Windows,1080,1920,6.260233333333334,
58,List1,Exp,,BoySomeSusanPears,,2,8,some,,AOI1,AOI7,some,,1,33-33,Susan's,,Click on the boy that has some of Susan's pears,1,2_pears,girl,3_bananas,2_apples,3_oranges,1_apple,1_pear,boy,boy,girl,,,,,,,,boy with two pears,3688,fruit,small,,1,7,,boy,,2_pears,13,[],21,Confused,,3,2,1.00 ,Male,"english, spanish",,Chrome,Windows,1080,1920,6.260233333333334,
58,List1,Exp,,GirlAllMichaelErasers,,4,10,all,,AOI3,AOI9,all,,26,44-22,Michael's,,Click on the girl that has all of Michael's erasers,1,3_pencils,girl,2_scissors,2_erasers,3_rulers,1_pencil,1_ruler,boy,boy,girl,,,,,,,,girl with two erasers,3782,stationeries,small,,3,9,,girl,,2_erasers,14,[],21,Confused,,3,2,1.00 ,Male,"english, spanish",,Chrome,Windows,1080,1920,6.260233333333334,
58,List1,Exp,,GirlThreeSusanPears,,3,9,num,,AOI4,AOI10,three,,6,33-33,Susan's,,Click on the girl that has three of Susan's pears,1,2_oranges,girl,3_bananas,2_apples,3_pears,1_apple,1_orange,boy,boy,girl,,,,,,,,girl with three pairs,10072,fruit,big,,4,10,,girl,,3_pears,15,[],21,Confused,,3,2,1.00 ,Male,"english, spanish",,Chrome,Windows,1080,1920,6.260233333333334,
58,List1,Filler,,GirlFourSusanOranges,,4,10,four,,AOI3,AOI9,four,,45,44-22,Susan's,,Click on the girl that has four of Susan's oranges,1,2_pears,girl,3_apples,4_oranges,1_banana,1_banana,1_apple,boy,boy,girl,,,,,,,,girl with four oranges,9816,fruit,big,,3,9,,girl,,4_oranges,16,[],21,Confused,,3,2,1.00 ,Male,"english, spanish",,Chrome,Windows,1080,1920,6.260233333333334,
58,List1,Exp,,GirlSomeAmyPlates,,3,9,some,,AOI4,AOI10,some,,16,33-33,Amy's,,Click on the girl that has some of Amy's plates,1,2_forks,girl,3_knives,3_spoons,2_plates,1_fork,1_plate,boy,boy,girl,,,,,,,,girl with two plates.,6110,kitchenwares,small,,4,10,,girl,,2_plates,17,[],21,Confused,,3,2,1.00 ,Male,"english, spanish",,Chrome,Windows,1080,1920,6.260233333333334,
58,List1,Filler,,BoyOneAmyPlates,,2,8,one,,AOI1,AOI7,one,,38,33-33,Amy's,,Click on the boy that has one of Amy's plates,1,1_plate,girl,3_knives,3_forks,3_spoons,2_plates,0,boy,boy,girl,,,,,,,,boy with one plate,4290,kitchenwares,small,,1,7,,boy,,1_plate,18,[],21,Confused,,3,2,1.00 ,Male,"english, spanish",,Chrome,Windows,1080,1920,6.260233333333334,
58,List1,Filler,,BoyOneAmySpoons,,1,7,one,,AOI2,AOI8,one,,39,33-33,Amy's,,Click on the boy that has one of Amy's spoons,1,3_forks,girl,1_spoon,3_plates,3_knives,2_spoons,0,boy,boy,girl,,,,,,,,boy with one spoon,3652,kitchenwares,small,,2,8,,boy,,1_spoon,19,[],21,Confused,,3,2,1.00 ,Male,"english, spanish",,Chrome,Windows,1080,1920,6.260233333333334,
58,List1,Exp,,BoyAllAmyKnives,,2,8,all,,AOI1,AOI7,all,,18,33-33,Amy's,,Click on the boy that has all of Amy's knives,1,3_knives,girl,2_plates,3_spoons,2_forks,1_plate,1_fork,boy,boy,girl,,,,,,,,boy with three knives,3121,kitchenwares,big,,1,7,,boy,,3_knives,20,[],21,Confused,,3,2,1.00 ,Male,"english, spanish",,Chrome,Windows,1080,1920,6.260233333333334,
58,List1,Exp,,BoySomeMichaelPencils,,2,8,some,,AOI1,AOI7,some,,29,44-22,Michael's,,Click on the boy that has some of Michael's pencils,1,3_pencils,girl,2_erasers,3_scissors,2_rulers,1_pencil,1_scissor,boy,boy,girl,,,,,,,,boy with three pencils,3406,stationeries,big,,1,7,,boy,,3_pencils,21,[],21,Confused,,3,2,1.00 ,Male,"english, spanish",,Chrome,Windows,1080,1920,6.260233333333334,
58,List1,Exp,,BoySomeMichaelErasers,,2,8,some,,AOI1,AOI7,some,,11,33-33,Michael's,,Click on the boy that has some of Michael's erasers,1,2_erasers,girl,3_pencils,2_rulers,3_scissors,1_ruler,1_eraser,boy,boy,girl,,,,,,,,boy with two erasers,7215,stationeries,small,,1,7,,boy,,2_erasers,22,[],21,Confused,,3,2,1.00 ,Male,"english, spanish",,Chrome,Windows,1080,1920,6.260233333333334,
58,List1,Exp,,GirlAllAmySpoons,,4,10,all,,AOI3,AOI9,all,,36,44-22,Amy's,,Click on the girl that has all of Amy's spoons,1,3_plates,girl,2_knives,2_spoons,3_forks,1_plate,1_fork,boy,boy,girl,,,,,,,,girl blushing with two spoons,5038,kitchenwares,small,,3,9,,girl,,2_spoons,23,[],21,Confused,,3,2,1.00 ,Male,"english, spanish",,Chrome,Windows,1080,1920,6.260233333333334,
58,List1,Filler,,GirlFourAmyPlates,,3,9,four,,AOI4,AOI10,four,,47,44-22,Amy's,,Click on the girl that has four of Amy's plates,1,1_knife,girl,3_forks,2_spoons,4_plates,1_knife,1_fork,boy,boy,girl,,,,,,,,girl blushing with four plates,6633,kitchenwares,big,,4,10,,girl,,4_plates,24,[],21,Confused,,3,2,1.00 ,Male,"english, spanish",,Chrome,Windows,1080,1920,6.260233333333334,
58,List1,Exp,,GirlAllMichaelRulers,,3,9,all,,AOI4,AOI10,all,,8,33-33,Michael's,,Click on the girl that has all of Michael's rulers,1,2_scissors,girl,3_pencils,2_erasers,3_rulers,1_eraser,1_scissor,boy,boy,girl,,,,,,,,girl blushing with three rulers,3792,stationeries,big,,4,10,,girl,,3_rulers,25,[],21,Confused,,3,2,1.00 ,Male,"english, spanish",,Chrome,Windows,1080,1920,6.260233333333334,
58,List1,Filler,,GirlFourMichaelPencils,,3,9,four,,AOI4,AOI10,four,,48,44-22,Michael's,,Click on the girl that has four of Michael's pencils,1,1_ruler,girl,2_erasers,3_scissors,4_pencils,1_ruler,1_scissor,boy,boy,girl,,,,,,,,girl blushing with four pencils,3886,stationeries,big,,4,10,,girl,,4_pencils,26,[],21,Confused,,3,2,1.00 ,Male,"english, spanish",,Chrome,Windows,1080,1920,6.260233333333334,
58,List1,Exp,,GirlTwoSusanBananas,,3,9,num,,AOI4,AOI10,two,,5,33-33,Susan's,,Click on the girl that has two of Susan's bananas,1,2_pears,girl,3_apples,3_oranges,2_bananas,1_banana,1_pear,boy,boy,girl,,,,,,,,girl blushing with two banans,3154,fruit,small,,4,10,,girl,,2_bananas,27,[],21,Confused,,3,2,1.00 ,Male,"english, spanish",,Chrome,Windows,1080,1920,6.260233333333334,
58,List1,Exp,,BoyTwoMichaelPencils,,1,7,num,,AOI2,AOI8,two,,28,44-22,Michael's,,Click on the boy that has two of Michael's pencils,1,3_scissors,girl,2_pencils,2_erasers,3_rulers,1_ruler,1_scissor,boy,boy,girl,,,,,,,,boy blushing with two pencils,4726,stationeries,small,,2,8,,boy,,2_pencils,28,[],21,Confused,,3,2,1.00 ,Male,"english, spanish",,Chrome,Windows,1080,1920,6.260233333333334,
58,List1,Exp,,GirlThreeSusanOranges,,4,10,num,,AOI3,AOI9,three,,23,44-22,Susan's,,Click on the girl that has three of Susan's oranges,1,3_apples,girl,2_pears,3_oranges,2_bananas,1_apple,1_orange,boy,boy,girl,,,,,,,,girl blushing with three oranges,6028,fruit,big,,3,9,,girl,,3_oranges,29,[],21,Confused,,3,2,1.00 ,Male,"english, spanish",,Chrome,Windows,1080,1920,6.260233333333334,
58,List1,Exp,,BoyTwoSusanApples,,2,8,num,,AOI1,AOI7,two,,24,44-22,Susan's,,Click on the boy that has two of Susan's apples,1,2_apples,girl,3_pears,3_bananas,2_oranges,1_banana,1_pear,boy,boy,girl,,,,,,,,boy with two apples,4087,fruit,small,,1,7,,boy,,2_apples,30,[],21,Confused,,3,2,1.00 ,Male,"english, spanish",,Chrome,Windows,1080,1920,6.260233333333334,
58,List1,Filler,,BoyOneMichaelRulers,,1,7,one,,AOI2,AOI8,one,,40,33-33,Michael's,,Click on the boy that has one of Michael's rulers,1,3_erasers,girl,1_ruler,3_pencils,3_scissors,2_scissors,0,boy,boy,girl,,,,,,,,boy with a ruler,3003,stationeries,small,,2,8,,boy,,1_ruler,31,[],21,Confused,,3,2,1.00 ,Male,"english, spanish",,Chrome,Windows,1080,1920,6.260233333333334,
58,List1,Filler,,GirlFourAmyKnives,,4,10,four,,AOI3,AOI9,four,,46,44-22,Amy's,,Click on the girl that has four of Amy's knives,1,1_spoon,girl,3_plates,4_knives,2_forks,1_spoon,1_plate,boy,boy,girl,,,,,,,,girl blushing with four knives,3920,kitchenwares,big,,3,9,,girl,,4_knives,32,[],21,Confused,,3,2,1.00 ,Male,"english, spanish",,Chrome,Windows,1080,1920,6.260233333333334,
58,List1,Exp,,GirlAllAmyPlates,,3,9,all,,AOI4,AOI10,all,,35,44-22,Amy's,,Click on the girl that has all of Amy's plates,1,3_spoons,girl,2_forks,3_knives,2_plates,1_spoon,1_knife,boy,boy,girl,,,,,,,,girl blushing with two plates,3527,kitchenwares,small,,4,10,,girl,,2_plates,33,[],21,Confused,,3,2,1.00 ,Male,"english, spanish",,Chrome,Windows,1080,1920,6.260233333333334,
58,List1,Exp,,GirlAllSusanBananas,,4,10,all,,AOI3,AOI9,all,,4,33-33,Susan's,,Click on the girl that has all of Susan's bananas,1,2_pears,girl,3_apples,3_bananas,2_oranges,1_orange,1_pear,boy,boy,girl,,,,,,,,girl blushing with three banans,3713,fruit,big,,3,9,,girl,,3_bananas,34,[],21,Confused,,3,2,1.00 ,Male,"english, spanish",,Chrome,Windows,1080,1920,6.260233333333334,
58,List1,Exp,,BoyAllSusanApples,,2,8,all,,AOI1,AOI7,all,,22,44-22,Susan's,,Click on the boy that has all of Susan's apples,1,2_apples,girl,3_pears,3_oranges,2_bananas,1_orange,1_pear,boy,boy,girl,,,,,,,,boy blushing with two apples,3876,fruit,small,,1,7,,boy,,2_apples,35,[],21,Confused,,3,2,1.00 ,Male,"english, spanish",,Chrome,Windows,1080,1920,6.260233333333334,
58,List1,Filler,,BoyFourMichaelScissors,,2,8,four,,AOI1,AOI7,four,,43,44-22,Michael's,,Click on the boy that has four of Michael's scissors,1,4_scissors,girl,1_pencil,2_rulers,3_erasers,1_pencil,1_eraser,boy,boy,girl,,,,,,,,boy with four scissors,3996,stationeries,big,,1,7,,boy,,4_scissors,36,[],21,Confused,,3,2,1.00 ,Male,"english, spanish",,Chrome,Windows,1080,1920,6.260233333333334,
58,List1,Exp,,BoyTwoAmySpoons,,2,8,num,,AOI1,AOI7,two,,32,44-22,Amy's,,Click on the boy that has two of Amy's spoons,1,2_spoons,girl,3_knives,3_forks,2_plates,1_fork,1_knife,boy,boy,girl,,,,,,,,boy with two spoons,3726,kitchenwares,small,,1,7,,boy,,2_spoons,37,[],21,Confused,,3,2,1.00 ,Male,"english, spanish",,Chrome,Windows,1080,1920,6.260233333333334,
58,List1,Filler,,GirlOneSusanPears,,3,9,one,,AOI4,AOI10,one,,42,33-33,Susan's,,Click on the girl that has one of Susan's pears,1,3_bananas,girl,3_oranges,3_apples,1_pear,2_pears,0,boy,boy,girl,,,,,,,,girl blushing with a pear,5283,fruit,small,,4,10,,girl,,1_pear,38,[],21,Confused,,3,2,1.00 ,Male,"english, spanish",,Chrome,Windows,1080,1920,6.260233333333334,
58,List1,Exp,,GirlTwoAmyForks,,3,9,num,,AOI4,AOI10,two,,13,33-33,Amy's,,Click on the girl that has two of Amy's forks,1,2_knives,girl,3_spoons,3_plates,2_forks,1_fork,1_knife,boy,boy,girl,,,,,,,,girl blushing with two forks,3504,kitchenwares,small,,4,10,,girl,,2_forks,39,[],21,Confused,,3,2,1.00 ,Male,"english, spanish",,Chrome,Windows,1080,1920,6.260233333333334,
58,List1,Exp,,GirlSomeSusanBananas,,3,9,some,,AOI4,AOI10,some,,19,44-22,Susan's,,Click on the girl that has some of Susan's bananas,1,3_oranges,girl,2_apples,2_pears,3_bananas,1_banana,1_orange,boy,boy,girl,,,,,,,,girl blushing with three banans,3319,fruit,big,,4,10,,girl,,3_bananas,40,[],21,Confused,,3,2,1.00 ,Male,"english, spanish",,Chrome,Windows,1080,1920,6.260233333333334,
58,List1,Exp,,BoySomeMichaelScissors,,1,7,some,,AOI2,AOI8,some,,12,33-33,Michael's,,Click on the boy that has some of Michael's scissors,1,3_rulers,girl,2_scissors,2_pencils,3_erasers,1_pencil,1_scissor,boy,boy,girl,,,,,,,,boy with two scissors,3386,stationeries,small,,2,8,,boy,,2_scissors,41,[],21,Confused,,3,2,1.00 ,Male,"english, spanish",,Chrome,Windows,1080,1920,6.260233333333334,
58,List1,Exp,,GirlSomeSusanApples,,4,10,some,,AOI3,AOI9,some,,20,44-22,Susan's,,Click on the girl that has some of Susan's apples,1,3_pears,girl,2_bananas,3_apples,2_oranges,1_apple,1_pear,boy,boy,girl,,,,,,,,girl blushing with three apples,3421,fruit,big,,3,9,,girl,,3_apples,42,[],21,Confused,,3,2,1.00 ,Male,"english, spanish",,Chrome,Windows,1080,1920,6.260233333333334,
58,List1,Exp,,GirlThreeMichaelScissors,,4,10,num,,AOI3,AOI9,three,,10,33-33,Michael's,,Click on the girl that has three of Michael's scissors,1,3_rulers,girl,2_erasers,3_scissors,2_pencils,1_pencil,1_eraser,boy,boy,girl,,,,,,,,girl blushing with three scissors,3478,stationeries,big,,3,9,,girl,,3_scissors,43,[],21,Confused,,3,2,1.00 ,Male,"english, spanish",,Chrome,Windows,1080,1920,6.260233333333334,
58,List1,Exp,,BoySomeSusanOranges,,1,7,some,,AOI2,AOI8,some,,2,33-33,Susan's,,Click on the boy that has some of Susan's oranges,1,3_apples,girl,2_oranges,2_bananas,3_pears,1_banana,1_orange,boy,boy,girl,,,,,,,,boy blushing with two oranges.,6347,fruit,small,,2,8,,boy,,2_oranges,44,[],21,Confused,,3,2,1.00 ,Male,"english, spanish",,Chrome,Windows,1080,1920,6.260233333333334,
58,List1,Filler,,BoyOneSusanApples,,2,8,one,,AOI1,AOI7,one,,37,33-33,Susan's,,Click on the boy that has one of Susan's apples,1,1_apple,girl,3_pears,3_bananas,3_oranges,2_apples,0,boy,boy,girl,,,,,,,,boy with one apple,3770,fruit,small,,1,7,,boy,,1_apple,45,[],21,Confused,,3,2,1.00 ,Male,"english, spanish",,Chrome,Windows,1080,1920,6.260233333333334,
58,List1,Exp,,BoyThreeMichaelErasers,,1,7,num,,AOI2,AOI8,three,,27,44-22,Michael's,,Click on the boy that has three of Michael's erasers,1,2_rulers,girl,3_erasers,2_scissors,3_pencils,1_pencil,1_eraser,boy,boy,girl,,,,,,,,boy with three erasers,3827,stationeries,big,,2,8,,boy,,3_erasers,46,[],21,Confused,,3,2,1.00 ,Male,"english, spanish",,Chrome,Windows,1080,1920,6.260233333333334,
58,List1,Exp,,GirlSomeMichaelRulers,,3,9,some,,AOI4,AOI10,some,,30,44-22,Michael's,,Click on the girl that has some of Michael's rulers,1,3_erasers,girl,2_pencils,2_scissors,3_rulers,1_ruler,1_eraser,boy,boy,girl,,,,,,,,girl blushing with three rulers,4917,stationeries,big,,4,10,,girl,,3_rulers,47,[],21,Confused,,3,2,1.00 ,Male,"english, spanish",,Chrome,Windows,1080,1920,6.260233333333334,
58,List1,Filler,,GirlOneMichaelErasers,,4,10,one,,AOI3,AOI9,one,,41,33-33,Michael's,,Click on the girl that has one of Michael's erasers,1,3_pencils,girl,3_scissors,1_eraser,3_rulers,2_erasers,0,boy,boy,girl,,,,,,,,girl blushing with an eraser,3624,stationeries,small,,3,9,,girl,,1_eraser,48,[],21,Confused,,3,2,1.00 ,Male,"english, spanish",,Chrome,Windows,1080,1920,6.260233333333334,
41,List1,Prac,kitchware_Amy_Monday,,Residue_kitchen,4,,,num,AOI3,AOI9,,three,5,44-22,Amy,Click on the girl that has three of Amy's knives,,,2_spoons,girl,3_forks,3_knives,2_plates,1_fork,1_knife,boy,boy,girl,knives,D4_forks,D2_spoons,D4_knives,production practice,1,GirlThreeAmyknives,girl and three knives,,kitchenwares,,big,3,,girl,,3_knives,,,[],50,Yes,,3,1,yes,Female,English,no,Chrome,Windows,768,1366,8.1625,
41,List1,Prac,kitchware_Amy_Tuesday,,Slience,2,,,some,AOI4,AOI10,,some,6,33-33,Amy,Click on the girl that has some of Amy's forks,,,3_spoons,girl,2_knives,3_plates,2_forks,1_fork,1_knife,boy,boy,girl,forks,D3_forks,D3_spoons,D3_knives,production practice,2,GirlSomeAmyforks,girl and 2 forks,,kitchenwares,,big,4,,girl,,2_forks,,,[],50,Yes,,3,1,yes,Female,English,no,Chrome,Windows,768,1366,8.1625,
41,List1,Exp,,BoyAllSusanOranges,,1,7,all,,AOI2,AOI8,all,,21,44-22,Susan's,,Click on the boy that has all of Susan's oranges,1,3_bananas,girl,2_oranges,3_apples,2_pears,1_apple,1_banana,boy,boy,girl,,,,,,,,boy and 2 oranges,16049,fruit,small,,2,8,,boy,,2_oranges,1,[],50,Yes,,3,1,yes,Female,English,no,Chrome,Windows,768,1366,8.1625,
41,List1,Exp,,GirlSomeAmyPlates,,3,9,some,,AOI4,AOI10,some,,16,33-33,Amy's,,Click on the girl that has some of Amy's plates,1,2_forks,girl,3_knives,3_spoons,2_plates,1_fork,1_plate,boy,boy,girl,,,,,,,,girl and 2 plates,11707,kitchenwares,small,,4,10,,girl,,2_plates,2,[],50,Yes,,3,1,yes,Female,English,no,Chrome,Windows,768,1366,8.1625,
41,List1,Exp,,GirlAllAmySpoons,,4,10,all,,AOI3,AOI9,all,,36,44-22,Amy's,,Click on the girl that has all of Amy's spoons,1,3_plates,girl,2_knives,2_spoons,3_forks,1_plate,1_fork,boy,boy,girl,,,,,,,,girl and three forks,6819,kitchenwares,small,,3,9,,girl,,2_spoons,3,[],50,Yes,,3,1,yes,Female,English,no,Chrome,Windows,768,1366,8.1625,
41,List1,Exp,,BoySomeAmySpoons,,1,7,some,,AOI2,AOI8,some,,33,44-22,Amy's,,Click on the boy that has some of Amy's spoons,1,2_plates,girl,3_spoons,2_forks,3_knives,1_spoon,1_knife,boy,boy,girl,,,,,,,,boy and three spoons,6318,kitchenwares,big,,2,8,,boy,,3_spoons,4,[],50,Yes,,3,1,yes,Female,English,no,Chrome,Windows,768,1366,8.1625,
41,List1,Filler,,BoyFourMichaelScissors,,2,8,four,,AOI1,AOI7,four,,43,44-22,Michael's,,Click on the boy that has four of Michael's scissors,1,4_scissors,girl,1_pencil,2_rulers,3_erasers,1_pencil,1_eraser,boy,boy,girl,,,,,,,,boy and 4 scissors,8809,stationeries,big,,1,7,,boy,,4_scissors,5,[],50,Yes,,3,1,yes,Female,English,no,Chrome,Windows,768,1366,8.1625,
41,List1,Exp,,GirlThreeSusanPears,,3,9,num,,AOI4,AOI10,three,,6,33-33,Susan's,,Click on the girl that has three of Susan's pears,1,2_oranges,girl,3_bananas,2_apples,3_pears,1_apple,1_orange,boy,boy,girl,,,,,,,,girl and 3 pears,7001,fruit,big,,4,10,,girl,,3_pears,6,[],50,Yes,,3,1,yes,Female,English,no,Chrome,Windows,768,1366,8.1625,
41,List1,Exp,,GirlTwoAmyForks,,3,9,num,,AOI4,AOI10,two,,13,33-33,Amy's,,Click on the girl that has two of Amy's forks,1,2_knives,girl,3_spoons,3_plates,2_forks,1_fork,1_knife,boy,boy,girl,,,,,,,,girl and 2 forks,5403,kitchenwares,small,,4,10,,girl,,2_forks,7,[],50,Yes,,3,1,yes,Female,English,no,Chrome,Windows,768,1366,8.1625,
41,List1,Exp,,GirlAllSusanBananas,,4,10,all,,AOI3,AOI9,all,,4,33-33,Susan's,,Click on the girl that has all of Susan's bananas,1,2_pears,girl,3_apples,3_bananas,2_oranges,1_orange,1_pear,boy,boy,girl,,,,,,,,girl and 3 bananas,7053,fruit,big,,3,9,,girl,,3_bananas,8,[],50,Yes,,3,1,yes,Female,English,no,Chrome,Windows,768,1366,8.1625,
41,List1,Exp,,BoyThreeAmyKnives,,1,7,num,,AOI2,AOI8,three,,14,33-33,Amy's,,Click on the boy that has three of Amy's knives,1,2_spoons,girl,3_knives,2_plates,3_forks,1_spoon,1_plate,boy,boy,girl,,,,,,,,boy and 3 knives,5344,kitchenwares,big,,2,8,,boy,,3_knives,9,[],50,Yes,,3,1,yes,Female,English,no,Chrome,Windows,768,1366,8.1625,
41,List1,Exp,,BoySomeMichaelScissors,,1,7,some,,AOI2,AOI8,some,,12,33-33,Michael's,,Click on the boy that has some of Michael's scissors,1,3_rulers,girl,2_scissors,2_pencils,3_erasers,1_pencil,1_scissor,boy,boy,girl,,,,,,,,boy and 2 scissors,5825,stationeries,small,,2,8,,boy,,2_scissors,10,[],50,Yes,,3,1,yes,Female,English,no,Chrome,Windows,768,1366,8.1625,
41,List1,Filler,,GirlOneMichaelErasers,,4,10,one,,AOI3,AOI9,one,,41,33-33,Michael's,,Click on the girl that has one of Michael's erasers,1,3_pencils,girl,3_scissors,1_eraser,3_rulers,2_erasers,0,boy,boy,girl,,,,,,,,girl and eraser,4885,stationeries,small,,3,9,,girl,,1_eraser,11,[],50,Yes,,3,1,yes,Female,English,no,Chrome,Windows,768,1366,8.1625,
41,List1,Exp,,BoyTwoMichaelPencils,,1,7,num,,AOI2,AOI8,two,,28,44-22,Michael's,,Click on the boy that has two of Michael's pencils,1,3_scissors,girl,2_pencils,2_erasers,3_rulers,1_ruler,1_scissor,boy,boy,girl,,,,,,,,boy and 2 pencils,6412,stationeries,small,,2,8,,boy,,2_pencils,12,[],50,Yes,,3,1,yes,Female,English,no,Chrome,Windows,768,1366,8.1625,
41,List1,Exp,,GirlTwoMichaelRulers,,4,10,num,,AOI3,AOI9,two,,9,33-33,Michael's,,Click on the girl that has two of Michael's rulers,1,3_pencils,girl,2_scissors,2_rulers,3_erasers,1_ruler,1_scissor,boy,boy,girl,,,,,,,,girl and 2 rulers,8602,stationeries,small,,3,9,,girl,,2_rulers,13,[],50,Yes,,3,1,yes,Female,English,no,Chrome,Windows,768,1366,8.1625,
41,List1,Exp,,GirlSomeAmyForks,,4,10,some,,AOI3,AOI9,some,,34,44-22,Amy's,,Click on the girl that has some of Amy's forks,1,2_spoons,girl,3_plates,3_forks,2_knives,1_fork,1_plate,boy,boy,girl,,,,,,,,girl and 3 forks,5143,kitchenwares,big,,3,9,,girl,,3_forks,14,[],50,Yes,,3,1,yes,Female,English,no,Chrome,Windows,768,1366,8.1625,
41,List1,Exp,,BoyThreeMichaelErasers,,1,7,num,,AOI2,AOI8,three,,27,44-22,Michael's,,Click on the boy that has three of Michael's erasers,1,2_rulers,girl,3_erasers,2_scissors,3_pencils,1_pencil,1_eraser,boy,boy,girl,,,,,,,,boy and 3 erasers,6248,stationeries,big,,2,8,,boy,,3_erasers,15,[],50,Yes,,3,1,yes,Female,English,no,Chrome,Windows,768,1366,8.1625,
41,List1,Exp,,BoyTwoAmySpoons,,2,8,num,,AOI1,AOI7,two,,32,44-22,Amy's,,Click on the boy that has two of Amy's spoons,1,2_spoons,girl,3_knives,3_forks,2_plates,1_fork,1_knife,boy,boy,girl,,,,,,,,boy and 2 spoons,5862,kitchenwares,small,,1,7,,boy,,2_spoons,16,[],50,Yes,,3,1,yes,Female,English,no,Chrome,Windows,768,1366,8.1625,
41,List1,Exp,,BoyAllAmyForks,,1,7,all,,AOI2,AOI8,all,,17,33-33,Amy's,,Click on the boy that has all of Amy's forks,1,2_spoons,girl,3_forks,2_knives,3_plates,1_spoon,1_knife,boy,boy,girl,,,,,,,,boy and 3 forks,4204,kitchenwares,big,,2,8,,boy,,3_forks,17,[],50,Yes,,3,1,yes,Female,English,no,Chrome,Windows,768,1366,8.1625,
41,List1,Exp,,GirlAllMichaelRulers,,3,9,all,,AOI4,AOI10,all,,8,33-33,Michael's,,Click on the girl that has all of Michael's rulers,1,2_scissors,girl,3_pencils,2_erasers,3_rulers,1_eraser,1_scissor,boy,boy,girl,,,,,,,,girl and 3 rulers,4740,stationeries,big,,4,10,,girl,,3_rulers,18,[],50,Yes,,3,1,yes,Female,English,no,Chrome,Windows,768,1366,8.1625,
41,List1,Exp,,GirlSomeMichaelRulers,,3,9,some,,AOI4,AOI10,some,,30,44-22,Michael's,,Click on the girl that has some of Michael's rulers,1,3_erasers,girl,2_pencils,2_scissors,3_rulers,1_ruler,1_eraser,boy,boy,girl,,,,,,,,girl and 3 rulers,6439,stationeries,big,,4,10,,girl,,3_rulers,19,[],50,Yes,,3,1,yes,Female,English,no,Chrome,Windows,768,1366,8.1625,
41,List1,Exp,,BoySomeSusanPears,,2,8,some,,AOI1,AOI7,some,,1,33-33,Susan's,,Click on the boy that has some of Susan's pears,1,2_pears,girl,3_bananas,2_apples,3_oranges,1_apple,1_pear,boy,boy,girl,,,,,,,,boy and 2 pears,5645,fruit,small,,1,7,,boy,,2_pears,20,[],50,Yes,,3,1,yes,Female,English,no,Chrome,Windows,768,1366,8.1625,
41,List1,Filler,,GirlFourAmyKnives,,4,10,four,,AOI3,AOI9,four,,46,44-22,Amy's,,Click on the girl that has four of Amy's knives,1,1_spoon,girl,3_plates,4_knives,2_forks,1_spoon,1_plate,boy,boy,girl,,,,,,,,girl and 4 knives,6532,kitchenwares,big,,3,9,,girl,,4_knives,21,[],50,Yes,,3,1,yes,Female,English,no,Chrome,Windows,768,1366,8.1625,
41,List1,Exp,,BoyAllAmyKnives,,2,8,all,,AOI1,AOI7,all,,18,33-33,Amy's,,Click on the boy that has all of Amy's knives,1,3_knives,girl,2_plates,3_spoons,2_forks,1_plate,1_fork,boy,boy,girl,,,,,,,,boy and 3 knives,5389,kitchenwares,big,,1,7,,boy,,3_knives,22,[],50,Yes,,3,1,yes,Female,English,no,Chrome,Windows,768,1366,8.1625,
41,List1,Exp,,GirlThreeSusanOranges,,4,10,num,,AOI3,AOI9,three,,23,44-22,Susan's,,Click on the girl that has three of Susan's oranges,1,3_apples,girl,2_pears,3_oranges,2_bananas,1_apple,1_orange,boy,boy,girl,,,,,,,,girl and 3 oranges,5435,fruit,big,,3,9,,girl,,3_oranges,23,[],50,Yes,,3,1,yes,Female,English,no,Chrome,Windows,768,1366,8.1625,
41,List1,Filler,,BoyOneAmySpoons,,1,7,one,,AOI2,AOI8,one,,39,33-33,Amy's,,Click on the boy that has one of Amy's spoons,1,3_forks,girl,1_spoon,3_plates,3_knives,2_spoons,0,boy,boy,girl,,,,,,,,boy and spoon,4781,kitchenwares,small,,2,8,,boy,,1_spoon,24,[],50,Yes,,3,1,yes,Female,English,no,Chrome,Windows,768,1366,8.1625,
41,List1,Exp,,GirlThreeMichaelScissors,,4,10,num,,AOI3,AOI9,three,,10,33-33,Michael's,,Click on the girl that has three of Michael's scissors,1,3_rulers,girl,2_erasers,3_scissors,2_pencils,1_pencil,1_eraser,boy,boy,girl,,,,,,,,girl and 3 scissors,5035,stationeries,big,,3,9,,girl,,3_scissors,25,[],50,Yes,,3,1,yes,Female,English,no,Chrome,Windows,768,1366,8.1625,
41,List1,Filler,,GirlFourMichaelPencils,,3,9,four,,AOI4,AOI10,four,,48,44-22,Michael's,,Click on the girl that has four of Michael's pencils,1,1_ruler,girl,2_erasers,3_scissors,4_pencils,1_ruler,1_scissor,boy,boy,girl,,,,,,,,girl and 4 pencils,6038,stationeries,big,,4,10,,girl,,4_pencils,26,[],50,Yes,,3,1,yes,Female,English,no,Chrome,Windows,768,1366,8.1625,
41,List1,Exp,,BoySomeMichaelErasers,,2,8,some,,AOI1,AOI7,some,,11,33-33,Michael's,,Click on the boy that has some of Michael's erasers,1,2_erasers,girl,3_pencils,2_rulers,3_scissors,1_ruler,1_eraser,boy,boy,girl,,,,,,,,girl and 2 erasers,6773,stationeries,small,,1,7,,boy,,2_erasers,27,[],50,Yes,,3,1,yes,Female,English,no,Chrome,Windows,768,1366,8.1625,
41,List1,Filler,,BoyOneMichaelRulers,,1,7,one,,AOI2,AOI8,one,,40,33-33,Michael's,,Click on the boy that has one of Michael's rulers,1,3_erasers,girl,1_ruler,3_pencils,3_scissors,2_scissors,0,boy,boy,girl,,,,,,,,boy and ruler,3798,stationeries,small,,2,8,,boy,,1_ruler,28,[],50,Yes,,3,1,yes,Female,English,no,Chrome,Windows,768,1366,8.1625,
41,List1,Filler,,BoyOneAmyPlates,,2,8,one,,AOI1,AOI7,one,,38,33-33,Amy's,,Click on the boy that has one of Amy's plates,1,1_plate,girl,3_knives,3_forks,3_spoons,2_plates,0,boy,boy,girl,,,,,,,,boy and plate,3885,kitchenwares,small,,1,7,,boy,,1_plate,29,[],50,Yes,,3,1,yes,Female,English,no,Chrome,Windows,768,1366,8.1625,
41,List1,Filler,,BoyFourSusanBananas,,1,7,four,,AOI2,AOI8,four,,44,44-22,Susan's,,Click on the boy that has four of Susan's bananas,1,1_orange,girl,4_bananas,3_pears,2_apples,1_orange,1_pear,boy,boy,girl,,,,,,,,boy and 4 bananas,6425,fruit,big,,2,8,,boy,,4_bananas,30,[],50,Yes,,3,1,yes,Female,English,no,Chrome,Windows,768,1366,8.1625,
41,List1,Exp,,GirlSomeSusanBananas,,3,9,some,,AOI4,AOI10,some,,19,44-22,Susan's,,Click on the girl that has some of Susan's bananas,1,3_oranges,girl,2_apples,2_pears,3_bananas,1_banana,1_orange,boy,boy,girl,,,,,,,,girl and 3 bananas,5917,fruit,big,,4,10,,girl,,3_bananas,31,[],50,Yes,,3,1,yes,Female,English,no,Chrome,Windows,768,1366,8.1625,
41,List1,Exp,,BoyAllMichaelScissors,,2,8,all,,AOI1,AOI7,all,,7,33-33,Michael's,,Click on the boy that has all of Michael's scissors,1,3_scissors,girl,2_pencils,3_erasers,2_rulers,1_pencil,1_ruler,boy,boy,girl,,,,,,,,boy and 3 scissors,4737,stationeries,big,,1,7,,boy,,3_scissors,32,[],50,Yes,,3,1,yes,Female,English,no,Chrome,Windows,768,1366,8.1625,
41,List1,Exp,,GirlSomeAmyKnives,,4,10,some,,AOI3,AOI9,some,,15,33-33,Amy's,,Click on the girl that has some of Amy's knives,1,2_spoons,girl,3_plates,2_knives,3_forks,1_spoon,1_knife,boy,boy,girl,,,,,,,,girl and 2 knives,5850,kitchenwares,small,,3,9,,girl,,2_knives,33,[],50,Yes,,3,1,yes,Female,English,no,Chrome,Windows,768,1366,8.1625,
41,List1,Filler,,GirlOneSusanPears,,3,9,one,,AOI4,AOI10,one,,42,33-33,Susan's,,Click on the girl that has one of Susan's pears,1,3_bananas,girl,3_oranges,3_apples,1_pear,2_pears,0,boy,boy,girl,,,,,,,,girl and pear,4577,fruit,small,,4,10,,girl,,1_pear,34,[],50,Yes,,3,1,yes,Female,English,no,Chrome,Windows,768,1366,8.1625,
41,List1,Exp,,BoyTwoSusanApples,,2,8,num,,AOI1,AOI7,two,,24,44-22,Susan's,,Click on the boy that has two of Susan's apples,1,2_apples,girl,3_pears,3_bananas,2_oranges,1_banana,1_pear,boy,boy,girl,,,,,,,,boy and 2 apples,4501,fruit,small,,1,7,,boy,,2_apples,35,[],50,Yes,,3,1,yes,Female,English,no,Chrome,Windows,768,1366,8.1625,
41,List1,Exp,,BoySomeSusanOranges,,1,7,some,,AOI2,AOI8,some,,2,33-33,Susan's,,Click on the boy that has some of Susan's oranges,1,3_apples,girl,2_oranges,2_bananas,3_pears,1_banana,1_orange,boy,boy,girl,,,,,,,,boy and 2 oranges,5389,fruit,small,,2,8,,boy,,2_oranges,36,[],50,Yes,,3,1,yes,Female,English,no,Chrome,Windows,768,1366,8.1625,
41,List1,Exp,,GirlAllAmyPlates,,3,9,all,,AOI4,AOI10,all,,35,44-22,Amy's,,Click on the girl that has all of Amy's plates,1,3_spoons,girl,2_forks,3_knives,2_plates,1_spoon,1_knife,boy,boy,girl,,,,,,,,girl and 2 plates,6513,kitchenwares,small,,4,10,,girl,,2_plates,37,[],50,Yes,,3,1,yes,Female,English,no,Chrome,Windows,768,1366,8.1625,
41,List1,Filler,,BoyOneSusanApples,,2,8,one,,AOI1,AOI7,one,,37,33-33,Susan's,,Click on the boy that has one of Susan's apples,1,1_apple,girl,3_pears,3_bananas,3_oranges,2_apples,0,boy,boy,girl,,,,,,,,boy and apple,3306,fruit,small,,1,7,,boy,,1_apple,38,[],50,Yes,,3,1,yes,Female,English,no,Chrome,Windows,768,1366,8.1625,
41,List1,Exp,,BoyThreeAmyPlates,,2,8,num,,AOI1,AOI7,three,,31,44-22,Amy's,,Click on the boy that has three of Amy's plates,1,3_plates,girl,2_forks,3_spoons,2_knives,1_spoon,1_plate,boy,boy,girl,,,,,,,,boy and 3 plates,4634,kitchenwares,big,,1,7,,boy,,3_plates,39,[],50,Yes,,3,1,yes,Female,English,no,Chrome,Windows,768,1366,8.1625,
41,List1,Filler,,GirlFourAmyPlates,,3,9,four,,AOI4,AOI10,four,,47,44-22,Amy's,,Click on the girl that has four of Amy's plates,1,1_knife,girl,3_forks,2_spoons,4_plates,1_knife,1_fork,boy,boy,girl,,,,,,,,girl and 4 plates,4826,kitchenwares,big,,4,10,,girl,,4_plates,40,[],50,Yes,,3,1,yes,Female,English,no,Chrome,Windows,768,1366,8.1625,
41,List1,Exp,,GirlAllMichaelPencils,,3,9,all,,AOI4,AOI10,all,,25,44-22,Michael's,,Click on the girl that has all of Michael's pencils,1,3_erasers,girl,2_rulers,3_scissors,2_pencils,1_eraser,1_scissor,boy,boy,girl,,,,,,,,girl and 2 pencils,7788,stationeries,small,,4,10,,girl,,2_pencils,41,[],50,Yes,,3,1,yes,Female,English,no,Chrome,Windows,768,1366,8.1625,
41,List1,Exp,,GirlSomeSusanApples,,4,10,some,,AOI3,AOI9,some,,20,44-22,Susan's,,Click on the girl that has some of Susan's apples,1,3_pears,girl,2_bananas,3_apples,2_oranges,1_apple,1_pear,boy,boy,girl,,,,,,,,girl and 3 apples,6536,fruit,big,,3,9,,girl,,3_apples,42,[],50,Yes,,3,1,yes,Female,English,no,Chrome,Windows,768,1366,8.1625,
41,List1,Exp,,GirlTwoSusanBananas,,3,9,num,,AOI4,AOI10,two,,5,33-33,Susan's,,Click on the girl that has two of Susan's bananas,1,2_pears,girl,3_apples,3_oranges,2_bananas,1_banana,1_pear,boy,boy,girl,,,,,,,,girl and 2 bananas,6554,fruit,small,,4,10,,girl,,2_bananas,43,[],50,Yes,,3,1,yes,Female,English,no,Chrome,Windows,768,1366,8.1625,
41,List1,Exp,,BoyAllSusanPears,,1,7,all,,AOI2,AOI8,all,,3,33-33,Susan's,,Click on the boy that has all of Susan's pears,1,2_apples,girl,3_pears,2_bananas,3_oranges,1_apple,1_banana,boy,boy,girl,,,,,,,,boy and 3 pears,4889,fruit,big,,2,8,,boy,,3_pears,44,[],50,Yes,,3,1,yes,Female,English,no,Chrome,Windows,768,1366,8.1625,
41,List1,Filler,,GirlFourSusanOranges,,4,10,four,,AOI3,AOI9,four,,45,44-22,Susan's,,Click on the girl that has four of Susan's oranges,1,2_pears,girl,3_apples,4_oranges,1_banana,1_banana,1_apple,boy,boy,girl,,,,,,,,girl and 4 oranges,5044,fruit,big,,3,9,,girl,,4_oranges,45,[],50,Yes,,3,1,yes,Female,English,no,Chrome,Windows,768,1366,8.1625,
41,List1,Exp,,GirlAllMichaelErasers,,4,10,all,,AOI3,AOI9,all,,26,44-22,Michael's,,Click on the girl that has all of Michael's erasers,1,3_pencils,girl,2_scissors,2_erasers,3_rulers,1_pencil,1_ruler,boy,boy,girl,,,,,,,,girl and 2 erasers,5806,stationeries,small,,3,9,,girl,,2_erasers,46,[],50,Yes,,3,1,yes,Female,English,no,Chrome,Windows,768,1366,8.1625,
41,List1,Exp,,BoyAllSusanApples,,2,8,all,,AOI1,AOI7,all,,22,44-22,Susan's,,Click on the boy that has all of Susan's apples,1,2_apples,girl,3_pears,3_oranges,2_bananas,1_orange,1_pear,boy,boy,girl,,,,,,,,boy and 2 apples,4581,fruit,small,,1,7,,boy,,2_apples,47,[],50,Yes,,3,1,yes,Female,English,no,Chrome,Windows,768,1366,8.1625,
41,List1,Exp,,BoySomeMichaelPencils,,2,8,some,,AOI1,AOI7,some,,29,44-22,Michael's,,Click on the boy that has some of Michael's pencils,1,3_pencils,girl,2_erasers,3_scissors,2_rulers,1_pencil,1_scissor,boy,boy,girl,,,,,,,,boy and 3 pencils,5306,stationeries,big,,1,7,,boy,,3_pencils,48,[],50,Yes,,3,1,yes,Female,English,no,Chrome,Windows,768,1366,8.1625,
35,List1,Prac,kitchware_Amy_Monday,,Residue_kitchen,4,,,num,AOI3,AOI9,,three,5,44-22,Amy,Click on the girl that has three of Amy's knives,,,2_spoons,girl,3_forks,3_knives,2_plates,1_fork,1_knife,boy,boy,girl,knives,D4_forks,D2_spoons,D4_knives,production practice,1,GirlThreeAmyknives,Girl with knives,,kitchenwares,,big,3,,girl,,3_knives,,,[],28,Yes,,2,2,yes,Female,English,no,Chrome,Windows,720,1280,7.878483333333333,
35,List1,Prac,kitchware_Amy_Tuesday,,Slience,2,,,some,AOI4,AOI10,,some,6,33-33,Amy,Click on the girl that has some of Amy's forks,,,3_spoons,girl,2_knives,3_plates,2_forks,1_fork,1_knife,boy,boy,girl,forks,D3_forks,D3_spoons,D3_knives,production practice,2,GirlSomeAmyforks,girl with forks,,kitchenwares,,big,4,,girl,,2_forks,,,[],28,Yes,,2,2,yes,Female,English,no,Chrome,Windows,720,1280,7.878483333333333,
35,List1,Exp,,GirlThreeSusanPears,,3,9,num,,AOI4,AOI10,three,,6,33-33,Susan's,,Click on the girl that has three of Susan's pears,1,2_oranges,girl,3_bananas,2_apples,3_pears,1_apple,1_orange,boy,boy,girl,,,,,,,,girl with pears,8573,fruit,big,,4,10,,girl,,3_pears,1,[],28,Yes,,2,2,yes,Female,English,no,Chrome,Windows,720,1280,7.878483333333333,
35,List1,Filler,,BoyFourMichaelScissors,,2,8,four,,AOI1,AOI7,four,,43,44-22,Michael's,,Click on the boy that has four of Michael's scissors,1,4_scissors,girl,1_pencil,2_rulers,3_erasers,1_pencil,1_eraser,boy,boy,girl,,,,,,,,boy with scissors,9195,stationeries,big,,1,7,,boy,,4_scissors,2,[],28,Yes,,2,2,yes,Female,English,no,Chrome,Windows,720,1280,7.878483333333333,
35,List1,Exp,,GirlAllMichaelRulers,,3,9,all,,AOI4,AOI10,all,,8,33-33,Michael's,,Click on the girl that has all of Michael's rulers,1,2_scissors,girl,3_pencils,2_erasers,3_rulers,1_eraser,1_scissor,boy,boy,girl,,,,,,,,girl with ruler,7519,stationeries,big,,4,10,,girl,,3_rulers,3,[],28,Yes,,2,2,yes,Female,English,no,Chrome,Windows,720,1280,7.878483333333333,
35,List1,Exp,,BoyAllSusanApples,,2,8,all,,AOI1,AOI7,all,,22,44-22,Susan's,,Click on the boy that has all of Susan's apples,1,2_apples,girl,3_pears,3_oranges,2_bananas,1_orange,1_pear,boy,boy,girl,,,,,,,,boy with apples,5263,fruit,small,,1,7,,boy,,2_apples,4,[],28,Yes,,2,2,yes,Female,English,no,Chrome,Windows,720,1280,7.878483333333333,
35,List1,Filler,,GirlFourSusanOranges,,4,10,four,,AOI3,AOI9,four,,45,44-22,Susan's,,Click on the girl that has four of Susan's oranges,1,2_pears,girl,3_apples,4_oranges,1_banana,1_banana,1_apple,boy,boy,girl,,,,,,,,girl with oranges,6210,fruit,big,,3,9,,girl,,4_oranges,5,[],28,Yes,,2,2,yes,Female,English,no,Chrome,Windows,720,1280,7.878483333333333,
35,List1,Exp,,BoySomeAmySpoons,,1,7,some,,AOI2,AOI8,some,,33,44-22,Amy's,,Click on the boy that has some of Amy's spoons,1,2_plates,girl,3_spoons,2_forks,3_knives,1_spoon,1_knife,boy,boy,girl,,,,,,,,boy with spoons,7222,kitchenwares,big,,2,8,,boy,,3_spoons,6,[],28,Yes,,2,2,yes,Female,English,no,Chrome,Windows,720,1280,7.878483333333333,
35,List1,Exp,,GirlTwoMichaelRulers,,4,10,num,,AOI3,AOI9,two,,9,33-33,Michael's,,Click on the girl that has two of Michael's rulers,1,3_pencils,girl,2_scissors,2_rulers,3_erasers,1_ruler,1_scissor,boy,boy,girl,,,,,,,,girl with rulers,4749,stationeries,small,,3,9,,girl,,2_rulers,7,[],28,Yes,,2,2,yes,Female,English,no,Chrome,Windows,720,1280,7.878483333333333,
35,List1,Exp,,GirlSomeAmyPlates,,3,9,some,,AOI4,AOI10,some,,16,33-33,Amy's,,Click on the girl that has some of Amy's plates,1,2_forks,girl,3_knives,3_spoons,2_plates,1_fork,1_plate,boy,boy,girl,,,,,,,,girl with plates,4754,kitchenwares,small,,4,10,,girl,,2_plates,8,[],28,Yes,,2,2,yes,Female,English,no,Chrome,Windows,720,1280,7.878483333333333,
35,List1,Exp,,BoyThreeMichaelErasers,,1,7,num,,AOI2,AOI8,three,,27,44-22,Michael's,,Click on the boy that has three of Michael's erasers,1,2_rulers,girl,3_erasers,2_scissors,3_pencils,1_pencil,1_eraser,boy,boy,girl,,,,,,,,boy with erasers,12237,stationeries,big,,2,8,,boy,,3_erasers,9,[],28,Yes,,2,2,yes,Female,English,no,Chrome,Windows,720,1280,7.878483333333333,
35,List1,Filler,,GirlOneMichaelErasers,,4,10,one,,AOI3,AOI9,one,,41,33-33,Michael's,,Click on the girl that has one of Michael's erasers,1,3_pencils,girl,3_scissors,1_eraser,3_rulers,2_erasers,0,boy,boy,girl,,,,,,,,girl with eraser,8727,stationeries,small,,3,9,,girl,,1_eraser,10,[],28,Yes,,2,2,yes,Female,English,no,Chrome,Windows,720,1280,7.878483333333333,
35,List1,Exp,,GirlSomeAmyKnives,,4,10,some,,AOI3,AOI9,some,,15,33-33,Amy's,,Click on the girl that has some of Amy's knives,1,2_spoons,girl,3_plates,2_knives,3_forks,1_spoon,1_knife,boy,boy,girl,,,,,,,,girl with knives,5206,kitchenwares,small,,3,9,,girl,,2_knives,11,[],28,Yes,,2,2,yes,Female,English,no,Chrome,Windows,720,1280,7.878483333333333,
35,List1,Exp,,BoyTwoAmySpoons,,2,8,num,,AOI1,AOI7,two,,32,44-22,Amy's,,Click on the boy that has two of Amy's spoons,1,2_spoons,girl,3_knives,3_forks,2_plates,1_fork,1_knife,boy,boy,girl,,,,,,,,boy with spoons,5578,kitchenwares,small,,1,7,,boy,,2_spoons,12,[],28,Yes,,2,2,yes,Female,English,no,Chrome,Windows,720,1280,7.878483333333333,
35,List1,Exp,,BoySomeSusanPears,,2,8,some,,AOI1,AOI7,some,,1,33-33,Susan's,,Click on the boy that has some of Susan's pears,1,2_pears,girl,3_bananas,2_apples,3_oranges,1_apple,1_pear,boy,boy,girl,,,,,,,,boy with pears,4990,fruit,small,,1,7,,boy,,2_pears,13,[],28,Yes,,2,2,yes,Female,English,no,Chrome,Windows,720,1280,7.878483333333333,
35,List1,Filler,,GirlOneSusanPears,,3,9,one,,AOI4,AOI10,one,,42,33-33,Susan's,,Click on the girl that has one of Susan's pears,1,3_bananas,girl,3_oranges,3_apples,1_pear,2_pears,0,boy,boy,girl,,,,,,,,girl with pear,4605,fruit,small,,4,10,,girl,,1_pear,14,[],28,Yes,,2,2,yes,Female,English,no,Chrome,Windows,720,1280,7.878483333333333,
35,List1,Filler,,BoyOneSusanApples,,2,8,one,,AOI1,AOI7,one,,37,33-33,Susan's,,Click on the boy that has one of Susan's apples,1,1_apple,girl,3_pears,3_bananas,3_oranges,2_apples,0,boy,boy,girl,,,,,,,,boy with apple,5439,fruit,small,,1,7,,boy,,1_apple,15,[],28,Yes,,2,2,yes,Female,English,no,Chrome,Windows,720,1280,7.878483333333333,
35,List1,Exp,,GirlTwoSusanBananas,,3,9,num,,AOI4,AOI10,two,,5,33-33,Susan's,,Click on the girl that has two of Susan's bananas,1,2_pears,girl,3_apples,3_oranges,2_bananas,1_banana,1_pear,boy,boy,girl,,,,,,,,girl with bananas,5971,fruit,small,,4,10,,girl,,2_bananas,16,[],28,Yes,,2,2,yes,Female,English,no,Chrome,Windows,720,1280,7.878483333333333,
35,List1,Exp,,BoySomeMichaelErasers,,2,8,some,,AOI1,AOI7,some,,11,33-33,Michael's,,Click on the boy that has some of Michael's erasers,1,2_erasers,girl,3_pencils,2_rulers,3_scissors,1_ruler,1_eraser,boy,boy,girl,,,,,,,,boy with erasers,6154,stationeries,small,,1,7,,boy,,2_erasers,17,[],28,Yes,,2,2,yes,Female,English,no,Chrome,Windows,720,1280,7.878483333333333,
35,List1,Exp,,BoySomeMichaelPencils,,2,8,some,,AOI1,AOI7,some,,29,44-22,Michael's,,Click on the boy that has some of Michael's pencils,1,3_pencils,girl,2_erasers,3_scissors,2_rulers,1_pencil,1_scissor,boy,boy,girl,,,,,,,,boy with pencils,8270,stationeries,big,,1,7,,boy,,3_pencils,18,[],28,Yes,,2,2,yes,Female,English,no,Chrome,Windows,720,1280,7.878483333333333,
35,List1,Exp,,GirlSomeAmyForks,,4,10,some,,AOI3,AOI9,some,,34,44-22,Amy's,,Click on the girl that has some of Amy's forks,1,2_spoons,girl,3_plates,3_forks,2_knives,1_fork,1_plate,boy,boy,girl,,,,,,,,girl with forks,5562,kitchenwares,big,,3,9,,girl,,3_forks,19,[],28,Yes,,2,2,yes,Female,English,no,Chrome,Windows,720,1280,7.878483333333333,
35,List1,Exp,,BoyThreeAmyPlates,,2,8,num,,AOI1,AOI7,three,,31,44-22,Amy's,,Click on the boy that has three of Amy's plates,1,3_plates,girl,2_forks,3_spoons,2_knives,1_spoon,1_plate,boy,boy,girl,,,,,,,,boy with plates,4698,kitchenwares,big,,1,7,,boy,,3_plates,20,[],28,Yes,,2,2,yes,Female,English,no,Chrome,Windows,720,1280,7.878483333333333,
35,List1,Exp,,GirlSomeMichaelRulers,,3,9,some,,AOI4,AOI10,some,,30,44-22,Michael's,,Click on the girl that has some of Michael's rulers,1,3_erasers,girl,2_pencils,2_scissors,3_rulers,1_ruler,1_eraser,boy,boy,girl,,,,,,,,girl with rulers,5592,stationeries,big,,4,10,,girl,,3_rulers,21,[],28,Yes,,2,2,yes,Female,English,no,Chrome,Windows,720,1280,7.878483333333333,
35,List1,Exp,,GirlThreeSusanOranges,,4,10,num,,AOI3,AOI9,three,,23,44-22,Susan's,,Click on the girl that has three of Susan's oranges,1,3_apples,girl,2_pears,3_oranges,2_bananas,1_apple,1_orange,boy,boy,girl,,,,,,,,girl with oranges,4883,fruit,big,,3,9,,girl,,3_oranges,22,[],28,Yes,,2,2,yes,Female,English,no,Chrome,Windows,720,1280,7.878483333333333,
35,List1,Exp,,BoyAllAmyKnives,,2,8,all,,AOI1,AOI7,all,,18,33-33,Amy's,,Click on the boy that has all of Amy's knives,1,3_knives,girl,2_plates,3_spoons,2_forks,1_plate,1_fork,boy,boy,girl,,,,,,,,boy with knives,6688,kitchenwares,big,,1,7,,boy,,3_knives,23,[],28,Yes,,2,2,yes,Female,English,no,Chrome,Windows,720,1280,7.878483333333333,
35,List1,Exp,,GirlTwoAmyForks,,3,9,num,,AOI4,AOI10,two,,13,33-33,Amy's,,Click on the girl that has two of Amy's forks,1,2_knives,girl,3_spoons,3_plates,2_forks,1_fork,1_knife,boy,boy,girl,,,,,,,,girl with forks,4730,kitchenwares,small,,4,10,,girl,,2_forks,24,[],28,Yes,,2,2,yes,Female,English,no,Chrome,Windows,720,1280,7.878483333333333,
35,List1,Filler,,BoyOneMichaelRulers,,1,7,one,,AOI2,AOI8,one,,40,33-33,Michael's,,Click on the boy that has one of Michael's rulers,1,3_erasers,girl,1_ruler,3_pencils,3_scissors,2_scissors,0,boy,boy,girl,,,,,,,,boy with ruler,3960,stationeries,small,,2,8,,boy,,1_ruler,25,[],28,Yes,,2,2,yes,Female,English,no,Chrome,Windows,720,1280,7.878483333333333,
35,List1,Exp,,BoyTwoMichaelPencils,,1,7,num,,AOI2,AOI8,two,,28,44-22,Michael's,,Click on the boy that has two of Michael's pencils,1,3_scissors,girl,2_pencils,2_erasers,3_rulers,1_ruler,1_scissor,boy,boy,girl,,,,,,,,boy with pencils,6248,stationeries,small,,2,8,,boy,,2_pencils,26,[],28,Yes,,2,2,yes,Female,English,no,Chrome,Windows,720,1280,7.878483333333333,
35,List1,Exp,,BoyThreeAmyKnives,,1,7,num,,AOI2,AOI8,three,,14,33-33,Amy's,,Click on the boy that has three of Amy's knives,1,2_spoons,girl,3_knives,2_plates,3_forks,1_spoon,1_plate,boy,boy,girl,,,,,,,,boy with knives,7046,kitchenwares,big,,2,8,,boy,,3_knives,27,[],28,Yes,,2,2,yes,Female,English,no,Chrome,Windows,720,1280,7.878483333333333,
35,List1,Exp,,GirlThreeMichaelScissors,,4,10,num,,AOI3,AOI9,three,,10,33-33,Michael's,,Click on the girl that has three of Michael's scissors,1,3_rulers,girl,2_erasers,3_scissors,2_pencils,1_pencil,1_eraser,boy,boy,girl,,,,,,,,girl with scissors,6793,stationeries,big,,3,9,,girl,,3_scissors,28,[],28,Yes,,2,2,yes,Female,English,no,Chrome,Windows,720,1280,7.878483333333333,
35,List1,Exp,,BoyTwoSusanApples,,2,8,num,,AOI1,AOI7,two,,24,44-22,Susan's,,Click on the boy that has two of Susan's apples,1,2_apples,girl,3_pears,3_bananas,2_oranges,1_banana,1_pear,boy,boy,girl,,,,,,,,boy with apples,5047,fruit,small,,1,7,,boy,,2_apples,29,[],28,Yes,,2,2,yes,Female,English,no,Chrome,Windows,720,1280,7.878483333333333,
35,List1,Filler,,BoyOneAmySpoons,,1,7,one,,AOI2,AOI8,one,,39,33-33,Amy's,,Click on the boy that has one of Amy's spoons,1,3_forks,girl,1_spoon,3_plates,3_knives,2_spoons,0,boy,boy,girl,,,,,,,,boy with spoon,5247,kitchenwares,small,,2,8,,boy,,1_spoon,30,[],28,Yes,,2,2,yes,Female,English,no,Chrome,Windows,720,1280,7.878483333333333,
35,List1,Exp,,GirlAllMichaelPencils,,3,9,all,,AOI4,AOI10,all,,25,44-22,Michael's,,Click on the girl that has all of Michael's pencils,1,3_erasers,girl,2_rulers,3_scissors,2_pencils,1_eraser,1_scissor,boy,boy,girl,,,,,,,,girl with pencils,5478,stationeries,small,,4,10,,girl,,2_pencils,31,[],28,Yes,,2,2,yes,Female,English,no,Chrome,Windows,720,1280,7.878483333333333,
35,List1,Exp,,BoyAllAmyForks,,1,7,all,,AOI2,AOI8,all,,17,33-33,Amy's,,Click on the boy that has all of Amy's forks,1,2_spoons,girl,3_forks,2_knives,3_plates,1_spoon,1_knife,boy,boy,girl,,,,,,,,boy with forks,4918,kitchenwares,big,,2,8,,boy,,3_forks,32,[],28,Yes,,2,2,yes,Female,English,no,Chrome,Windows,720,1280,7.878483333333333,
35,List1,Filler,,GirlFourMichaelPencils,,3,9,four,,AOI4,AOI10,four,,48,44-22,Michael's,,Click on the girl that has four of Michael's pencils,1,1_ruler,girl,2_erasers,3_scissors,4_pencils,1_ruler,1_scissor,boy,boy,girl,,,,,,,,girl with pencils,5512,stationeries,big,,4,10,,girl,,4_pencils,33,[],28,Yes,,2,2,yes,Female,English,no,Chrome,Windows,720,1280,7.878483333333333,
35,List1,Exp,,GirlAllAmySpoons,,4,10,all,,AOI3,AOI9,all,,36,44-22,Amy's,,Click on the girl that has all of Amy's spoons,1,3_plates,girl,2_knives,2_spoons,3_forks,1_plate,1_fork,boy,boy,girl,,,,,,,,girl with spoons,5064,kitchenwares,small,,3,9,,girl,,2_spoons,34,[],28,Yes,,2,2,yes,Female,English,no,Chrome,Windows,720,1280,7.878483333333333,
35,List1,Filler,,GirlFourAmyKnives,,4,10,four,,AOI3,AOI9,four,,46,44-22,Amy's,,Click on the girl that has four of Amy's knives,1,1_spoon,girl,3_plates,4_knives,2_forks,1_spoon,1_plate,boy,boy,girl,,,,,,,,girl with knives,4266,kitchenwares,big,,3,9,,girl,,4_knives,35,[],28,Yes,,2,2,yes,Female,English,no,Chrome,Windows,720,1280,7.878483333333333,
35,List1,Exp,,GirlAllAmyPlates,,3,9,all,,AOI4,AOI10,all,,35,44-22,Amy's,,Click on the girl that has all of Amy's plates,1,3_spoons,girl,2_forks,3_knives,2_plates,1_spoon,1_knife,boy,boy,girl,,,,,,,,girl with plates,6007,kitchenwares,small,,4,10,,girl,,2_plates,36,[],28,Yes,,2,2,yes,Female,English,no,Chrome,Windows,720,1280,7.878483333333333,
35,List1,Exp,,BoyAllSusanOranges,,1,7,all,,AOI2,AOI8,all,,21,44-22,Susan's,,Click on the boy that has all of Susan's oranges,1,3_bananas,girl,2_oranges,3_apples,2_pears,1_apple,1_banana,boy,boy,girl,,,,,,,,boy with oranges,4780,fruit,small,,2,8,,boy,,2_oranges,37,[],28,Yes,,2,2,yes,Female,English,no,Chrome,Windows,720,1280,7.878483333333333,
35,List1,Exp,,BoyAllMichaelScissors,,2,8,all,,AOI1,AOI7,all,,7,33-33,Michael's,,Click on the boy that has all of Michael's scissors,1,3_scissors,girl,2_pencils,3_erasers,2_rulers,1_pencil,1_ruler,boy,boy,girl,,,,,,,,boy with scissors,5509,stationeries,big,,1,7,,boy,,3_scissors,38,[],28,Yes,,2,2,yes,Female,English,no,Chrome,Windows,720,1280,7.878483333333333,
35,List1,Filler,,GirlFourAmyPlates,,3,9,four,,AOI4,AOI10,four,,47,44-22,Amy's,,Click on the girl that has four of Amy's plates,1,1_knife,girl,3_forks,2_spoons,4_plates,1_knife,1_fork,boy,boy,girl,,,,,,,,girl with plates,4580,kitchenwares,big,,4,10,,girl,,4_plates,39,[],28,Yes,,2,2,yes,Female,English,no,Chrome,Windows,720,1280,7.878483333333333,
35,List1,Filler,,BoyOneAmyPlates,,2,8,one,,AOI1,AOI7,one,,38,33-33,Amy's,,Click on the boy that has one of Amy's plates,1,1_plate,girl,3_knives,3_forks,3_spoons,2_plates,0,boy,boy,girl,,,,,,,,boy with plate,4732,kitchenwares,small,,1,7,,boy,,1_plate,40,[],28,Yes,,2,2,yes,Female,English,no,Chrome,Windows,720,1280,7.878483333333333,
35,List1,Exp,,BoySomeSusanOranges,,1,7,some,,AOI2,AOI8,some,,2,33-33,Susan's,,Click on the boy that has some of Susan's oranges,1,3_apples,girl,2_oranges,2_bananas,3_pears,1_banana,1_orange,boy,boy,girl,,,,,,,,boy with oranges,4715,fruit,small,,2,8,,boy,,2_oranges,41,[],28,Yes,,2,2,yes,Female,English,no,Chrome,Windows,720,1280,7.878483333333333,
35,List1,Filler,,BoyFourSusanBananas,,1,7,four,,AOI2,AOI8,four,,44,44-22,Susan's,,Click on the boy that has four of Susan's bananas,1,1_orange,girl,4_bananas,3_pears,2_apples,1_orange,1_pear,boy,boy,girl,,,,,,,,boy with bananas,5603,fruit,big,,2,8,,boy,,4_bananas,42,[],28,Yes,,2,2,yes,Female,English,no,Chrome,Windows,720,1280,7.878483333333333,
35,List1,Exp,,BoySomeMichaelScissors,,1,7,some,,AOI2,AOI8,some,,12,33-33,Michael's,,Click on the boy that has some of Michael's scissors,1,3_rulers,girl,2_scissors,2_pencils,3_erasers,1_pencil,1_scissor,boy,boy,girl,,,,,,,,boy with scissors,5888,stationeries,small,,2,8,,boy,,2_scissors,43,[],28,Yes,,2,2,yes,Female,English,no,Chrome,Windows,720,1280,7.878483333333333,
35,List1,Exp,,BoyAllSusanPears,,1,7,all,,AOI2,AOI8,all,,3,33-33,Susan's,,Click on the boy that has all of Susan's pears,1,2_apples,girl,3_pears,2_bananas,3_oranges,1_apple,1_banana,boy,boy,girl,,,,,,,,boy with pears,5184,fruit,big,,2,8,,boy,,3_pears,44,[],28,Yes,,2,2,yes,Female,English,no,Chrome,Windows,720,1280,7.878483333333333,
35,List1,Exp,,GirlAllMichaelErasers,,4,10,all,,AOI3,AOI9,all,,26,44-22,Michael's,,Click on the girl that has all of Michael's erasers,1,3_pencils,girl,2_scissors,2_erasers,3_rulers,1_pencil,1_ruler,boy,boy,girl,,,,,,,,girl with erasers,5462,stationeries,small,,3,9,,girl,,2_erasers,45,[],28,Yes,,2,2,yes,Female,English,no,Chrome,Windows,720,1280,7.878483333333333,
35,List1,Exp,,GirlSomeSusanBananas,,3,9,some,,AOI4,AOI10,some,,19,44-22,Susan's,,Click on the girl that has some of Susan's bananas,1,3_oranges,girl,2_apples,2_pears,3_bananas,1_banana,1_orange,boy,boy,girl,,,,,,,,girl with bananas,4676,fruit,big,,4,10,,girl,,3_bananas,46,[],28,Yes,,2,2,yes,Female,English,no,Chrome,Windows,720,1280,7.878483333333333,
35,List1,Exp,,GirlSomeSusanApples,,4,10,some,,AOI3,AOI9,some,,20,44-22,Susan's,,Click on the girl that has some of Susan's apples,1,3_pears,girl,2_bananas,3_apples,2_oranges,1_apple,1_pear,boy,boy,girl,,,,,,,,girl with apples,4539,fruit,big,,3,9,,girl,,3_apples,47,[],28,Yes,,2,2,yes,Female,English,no,Chrome,Windows,720,1280,7.878483333333333,
35,List1,Exp,,GirlAllSusanBananas,,4,10,all,,AOI3,AOI9,all,,4,33-33,Susan's,,Click on the girl that has all of Susan's bananas,1,2_pears,girl,3_apples,3_bananas,2_oranges,1_orange,1_pear,boy,boy,girl,,,,,,,,girl with bananas,6341,fruit,big,,3,9,,girl,,3_bananas,48,[],28,Yes,,2,2,yes,Female,English,no,Chrome,Windows,720,1280,7.878483333333333,
79,List1,Prac,kitchware_Amy_Monday,,Residue_kitchen,4,,,num,AOI3,AOI9,,three,5,44-22,Amy,Click on the girl that has three of Amy's knives,,,2_spoons,girl,3_forks,3_knives,2_plates,1_fork,1_knife,boy,boy,girl,knives,D4_forks,D2_spoons,D4_knives,production practice,1,GirlThreeAmyknives,girl with three knives,,kitchenwares,,big,3,,girl,,3_knives,,,[],25,Yes,,3,2,$2,Female,English,No,Chrome,Mac,900,1440,6.695083333333334,
79,List1,Prac,kitchware_Amy_Tuesday,,Slience,2,,,some,AOI4,AOI10,,some,6,33-33,Amy,Click on the girl that has some of Amy's forks,,,3_spoons,girl,2_knives,3_plates,2_forks,1_fork,1_knife,boy,boy,girl,forks,D3_forks,D3_spoons,D3_knives,production practice,2,GirlSomeAmyforks,girl with two forks,,kitchenwares,,big,4,,girl,,2_forks,,,[],25,Yes,,3,2,$2,Female,English,No,Chrome,Mac,900,1440,6.695083333333334,
79,List1,Exp,,GirlAllMichaelRulers,,3,9,all,,AOI4,AOI10,all,,8,33-33,Michael's,,Click on the girl that has all of Michael's rulers,1,2_scissors,girl,3_pencils,2_erasers,3_rulers,1_eraser,1_scissor,boy,boy,girl,,,,,,,,girl with three rulers,6783,stationeries,big,,4,10,,girl,,3_rulers,1,[],25,Yes,,3,2,$2,Female,English,No,Chrome,Mac,900,1440,6.695083333333334,
79,List1,Exp,,BoyAllSusanApples,,2,8,all,,AOI1,AOI7,all,,22,44-22,Susan's,,Click on the boy that has all of Susan's apples,1,2_apples,girl,3_pears,3_oranges,2_bananas,1_orange,1_pear,boy,boy,girl,,,,,,,,boy with two apples,5319,fruit,small,,1,7,,boy,,2_apples,2,[],25,Yes,,3,2,$2,Female,English,No,Chrome,Mac,900,1440,6.695083333333334,
79,List1,Filler,,GirlFourAmyKnives,,4,10,four,,AOI3,AOI9,four,,46,44-22,Amy's,,Click on the girl that has four of Amy's knives,1,1_spoon,girl,3_plates,4_knives,2_forks,1_spoon,1_plate,boy,boy,girl,,,,,,,,girl with four knives,6075,kitchenwares,big,,3,9,,girl,,4_knives,3,[],25,Yes,,3,2,$2,Female,English,No,Chrome,Mac,900,1440,6.695083333333334,
79,List1,Exp,,BoySomeSusanOranges,,1,7,some,,AOI2,AOI8,some,,2,33-33,Susan's,,Click on the boy that has some of Susan's oranges,1,3_apples,girl,2_oranges,2_bananas,3_pears,1_banana,1_orange,boy,boy,girl,,,,,,,,boy with two oranges,3374,fruit,small,,2,8,,boy,,2_oranges,4,[],25,Yes,,3,2,$2,Female,English,No,Chrome,Mac,900,1440,6.695083333333334,
79,List1,Exp,,GirlThreeSusanOranges,,4,10,num,,AOI3,AOI9,three,,23,44-22,Susan's,,Click on the girl that has three of Susan's oranges,1,3_apples,girl,2_pears,3_oranges,2_bananas,1_apple,1_orange,boy,boy,girl,,,,,,,,girl with three oranges,6391,fruit,big,,3,9,,girl,,3_oranges,5,[],25,Yes,,3,2,$2,Female,English,No,Chrome,Mac,900,1440,6.695083333333334,
79,List1,Filler,,BoyOneAmyPlates,,2,8,one,,AOI1,AOI7,one,,38,33-33,Amy's,,Click on the boy that has one of Amy's plates,1,1_plate,girl,3_knives,3_forks,3_spoons,2_plates,0,boy,boy,girl,,,,,,,,boy with one plate,6597,kitchenwares,small,,1,7,,boy,,1_plate,6,[],25,Yes,,3,2,$2,Female,English,No,Chrome,Mac,900,1440,6.695083333333334,
79,List1,Exp,,BoySomeMichaelScissors,,1,7,some,,AOI2,AOI8,some,,12,33-33,Michael's,,Click on the boy that has some of Michael's scissors,1,3_rulers,girl,2_scissors,2_pencils,3_erasers,1_pencil,1_scissor,boy,boy,girl,,,,,,,,boy with two sisscors,10723,stationeries,small,,2,8,,boy,,2_scissors,7,[],25,Yes,,3,2,$2,Female,English,No,Chrome,Mac,900,1440,6.695083333333334,
79,List1,Filler,,GirlFourSusanOranges,,4,10,four,,AOI3,AOI9,four,,45,44-22,Susan's,,Click on the girl that has four of Susan's oranges,1,2_pears,girl,3_apples,4_oranges,1_banana,1_banana,1_apple,boy,boy,girl,,,,,,,,girl with four oranges,5872,fruit,big,,3,9,,girl,,4_oranges,8,[],25,Yes,,3,2,$2,Female,English,No,Chrome,Mac,900,1440,6.695083333333334,
79,List1,Exp,,BoyAllAmyForks,,1,7,all,,AOI2,AOI8,all,,17,33-33,Amy's,,Click on the boy that has all of Amy's forks,1,2_spoons,girl,3_forks,2_knives,3_plates,1_spoon,1_knife,boy,boy,girl,,,,,,,,boy with three forks,3844,kitchenwares,big,,2,8,,boy,,3_forks,9,[],25,Yes,,3,2,$2,Female,English,No,Chrome,Mac,900,1440,6.695083333333334,
79,List1,Filler,,BoyOneSusanApples,,2,8,one,,AOI1,AOI7,one,,37,33-33,Susan's,,Click on the boy that has one of Susan's apples,1,1_apple,girl,3_pears,3_bananas,3_oranges,2_apples,0,boy,boy,girl,,,,,,,,boy with one apple,4888,fruit,small,,1,7,,boy,,1_apple,10,[],25,Yes,,3,2,$2,Female,English,No,Chrome,Mac,900,1440,6.695083333333334,
79,List1,Exp,,GirlSomeAmyPlates,,3,9,some,,AOI4,AOI10,some,,16,33-33,Amy's,,Click on the girl that has some of Amy's plates,1,2_forks,girl,3_knives,3_spoons,2_plates,1_fork,1_plate,boy,boy,girl,,,,,,,,girl with two plates,3563,kitchenwares,small,,4,10,,girl,,2_plates,11,[],25,Yes,,3,2,$2,Female,English,No,Chrome,Mac,900,1440,6.695083333333334,
79,List1,Exp,,GirlSomeAmyKnives,,4,10,some,,AOI3,AOI9,some,,15,33-33,Amy's,,Click on the girl that has some of Amy's knives,1,2_spoons,girl,3_plates,2_knives,3_forks,1_spoon,1_knife,boy,boy,girl,,,,,,,,girl with two knives,3348,kitchenwares,small,,3,9,,girl,,2_knives,12,[],25,Yes,,3,2,$2,Female,English,No,Chrome,Mac,900,1440,6.695083333333334,
79,List1,Exp,,BoyThreeAmyKnives,,1,7,num,,AOI2,AOI8,three,,14,33-33,Amy's,,Click on the boy that has three of Amy's knives,1,2_spoons,girl,3_knives,2_plates,3_forks,1_spoon,1_plate,boy,boy,girl,,,,,,,,boy with three knives,4168,kitchenwares,big,,2,8,,boy,,3_knives,13,[],25,Yes,,3,2,$2,Female,English,No,Chrome,Mac,900,1440,6.695083333333334,
79,List1,Exp,,BoyAllAmyKnives,,2,8,all,,AOI1,AOI7,all,,18,33-33,Amy's,,Click on the boy that has all of Amy's knives,1,3_knives,girl,2_plates,3_spoons,2_forks,1_plate,1_fork,boy,boy,girl,,,,,,,,boy with three knives,4228,kitchenwares,big,,1,7,,boy,,3_knives,14,[],25,Yes,,3,2,$2,Female,English,No,Chrome,Mac,900,1440,6.695083333333334,
79,List1,Exp,,BoySomeMichaelPencils,,2,8,some,,AOI1,AOI7,some,,29,44-22,Michael's,,Click on the boy that has some of Michael's pencils,1,3_pencils,girl,2_erasers,3_scissors,2_rulers,1_pencil,1_scissor,boy,boy,girl,,,,,,,,boy with three pencils,4324,stationeries,big,,1,7,,boy,,3_pencils,15,[],25,Yes,,3,2,$2,Female,English,No,Chrome,Mac,900,1440,6.695083333333334,
79,List1,Filler,,BoyFourMichaelScissors,,2,8,four,,AOI1,AOI7,four,,43,44-22,Michael's,,Click on the boy that has four of Michael's scissors,1,4_scissors,girl,1_pencil,2_rulers,3_erasers,1_pencil,1_eraser,boy,boy,girl,,,,,,,,boy with four sisscors,5041,stationeries,big,,1,7,,boy,,4_scissors,16,[],25,Yes,,3,2,$2,Female,English,No,Chrome,Mac,900,1440,6.695083333333334,
79,List1,Exp,,GirlTwoMichaelRulers,,4,10,num,,AOI3,AOI9,two,,9,33-33,Michael's,,Click on the girl that has two of Michael's rulers,1,3_pencils,girl,2_scissors,2_rulers,3_erasers,1_ruler,1_scissor,boy,boy,girl,,,,,,,,girl with two rulers,4397,stationeries,small,,3,9,,girl,,2_rulers,17,[],25,Yes,,3,2,$2,Female,English,No,Chrome,Mac,900,1440,6.695083333333334,
79,List1,Exp,,BoyTwoMichaelPencils,,1,7,num,,AOI2,AOI8,two,,28,44-22,Michael's,,Click on the boy that has two of Michael's pencils,1,3_scissors,girl,2_pencils,2_erasers,3_rulers,1_ruler,1_scissor,boy,boy,girl,,,,,,,,boy with two pencils,3809,stationeries,small,,2,8,,boy,,2_pencils,18,[],25,Yes,,3,2,$2,Female,English,No,Chrome,Mac,900,1440,6.695083333333334,
79,List1,Exp,,BoyAllSusanOranges,,1,7,all,,AOI2,AOI8,all,,21,44-22,Susan's,,Click on the boy that has all of Susan's oranges,1,3_bananas,girl,2_oranges,3_apples,2_pears,1_apple,1_banana,boy,boy,girl,,,,,,,,boy with two oranges,8326,fruit,small,,2,8,,boy,,2_oranges,19,[],25,Yes,,3,2,$2,Female,English,No,Chrome,Mac,900,1440,6.695083333333334,
79,List1,Filler,,GirlOneSusanPears,,3,9,one,,AOI4,AOI10,one,,42,33-33,Susan's,,Click on the girl that has one of Susan's pears,1,3_bananas,girl,3_oranges,3_apples,1_pear,2_pears,0,boy,boy,girl,,,,,,,,girl with one pear,4203,fruit,small,,4,10,,girl,,1_pear,20,[],25,Yes,,3,2,$2,Female,English,No,Chrome,Mac,900,1440,6.695083333333334,
79,List1,Exp,,GirlAllMichaelPencils,,3,9,all,,AOI4,AOI10,all,,25,44-22,Michael's,,Click on the girl that has all of Michael's pencils,1,3_erasers,girl,2_rulers,3_scissors,2_pencils,1_eraser,1_scissor,boy,boy,girl,,,,,,,,girl with two pencils,3778,stationeries,small,,4,10,,girl,,2_pencils,21,[],25,Yes,,3,2,$2,Female,English,No,Chrome,Mac,900,1440,6.695083333333334,
79,List1,Exp,,BoyAllSusanPears,,1,7,all,,AOI2,AOI8,all,,3,33-33,Susan's,,Click on the boy that has all of Susan's pears,1,2_apples,girl,3_pears,2_bananas,3_oranges,1_apple,1_banana,boy,boy,girl,,,,,,,,boy with three pears,5009,fruit,big,,2,8,,boy,,3_pears,22,[],25,Yes,,3,2,$2,Female,English,No,Chrome,Mac,900,1440,6.695083333333334,
79,List1,Exp,,GirlTwoSusanBananas,,3,9,num,,AOI4,AOI10,two,,5,33-33,Susan's,,Click on the girl that has two of Susan's bananas,1,2_pears,girl,3_apples,3_oranges,2_bananas,1_banana,1_pear,boy,boy,girl,,,,,,,,girl with two banans,3726,fruit,small,,4,10,,girl,,2_bananas,23,[],25,Yes,,3,2,$2,Female,English,No,Chrome,Mac,900,1440,6.695083333333334,
79,List1,Exp,,GirlTwoAmyForks,,3,9,num,,AOI4,AOI10,two,,13,33-33,Amy's,,Click on the girl that has two of Amy's forks,1,2_knives,girl,3_spoons,3_plates,2_forks,1_fork,1_knife,boy,boy,girl,,,,,,,,girl with two forks,3802,kitchenwares,small,,4,10,,girl,,2_forks,24,[],25,Yes,,3,2,$2,Female,English,No,Chrome,Mac,900,1440,6.695083333333334,
79,List1,Exp,,GirlAllAmyPlates,,3,9,all,,AOI4,AOI10,all,,35,44-22,Amy's,,Click on the girl that has all of Amy's plates,1,3_spoons,girl,2_forks,3_knives,2_plates,1_spoon,1_knife,boy,boy,girl,,,,,,,,girl with two plates,3576,kitchenwares,small,,4,10,,girl,,2_plates,25,[],25,Yes,,3,2,$2,Female,English,No,Chrome,Mac,900,1440,6.695083333333334,
