,workerid,proliferate.condition,ExpFiller,Intro_object,Prime,Res_object,competitor1,competitor2,condition,condition1,correctAns1,correctAns2,determiner,determiner1,displayID,display_type,figure,instruction1,instruction3,list,location1,location10,location2,location3,location4,location5,location6,location7,location8,location9,object1,object2,object3,object4,practiceTrialType,practice_trial_number,prime,response,response_times,setting,size,size1,target1,target2,target_figure1,target_figure3,target_object1,target_object3,trial_number,error,genderUsed,correctGender,correctNoun,detUsed,correctDet
0,54,List1,Prac,kitchware_Amy_Monday,,Residue_kitchen,4,,,num,AOI3,AOI9,,three,5,44-22,Amy,Click on the girl that has three of Amy's knives,,,2_spoons,girl,3_forks,3_knives,2_plates,1_fork,1_knife,boy,boy,girl,knives,D4_forks,D2_spoons,D4_knives,production practice,1,GirlThreeAmyknives,girl with three knives,,kitchenwares,,big,3,,girl,,3_knives,,,,girl,0,0,three,0
1,54,List1,Prac,kitchware_Amy_Tuesday,,Slience,2,,,some,AOI4,AOI10,,some,6,33-33,Amy,Click on the girl that has some of Amy's forks,,,3_spoons,girl,2_knives,3_plates,2_forks,1_fork,1_knife,boy,boy,girl,forks,D3_forks,D3_spoons,D3_knives,production practice,2,GirlSomeAmyforks,girl with two forks,,kitchenwares,,big,4,,girl,,2_forks,,,,girl,0,0,two,0
2,54,List1,Exp,,BoySomeSusanPears,,2,8,some,,AOI1,AOI7,some,,1,33-33,Susan's,,Click on the boy that has some of Susan's pears,1,2_pears,girl,3_bananas,2_apples,3_oranges,1_apple,1_pear,boy,boy,girl,,,,,,,,child with the two green pears,18672,fruit,small,,1,7,,boy,,2_pears,1,,child,1,1,two,1
3,54,List1,Exp,,GirlAllAmySpoons,,4,10,all,,AOI3,AOI9,all,,36,44-22,Amy's,,Click on the girl that has all of Amy's spoons,1,3_plates,girl,2_knives,2_spoons,3_forks,1_plate,1_fork,boy,boy,girl,,,,,,,,child with the spoons,12474,kitchenwares,small,,3,9,,girl,,2_spoons,2,,child,1,1,noDet,1
4,54,List1,Exp,,GirlAllAmyPlates,,3,9,all,,AOI4,AOI10,all,,35,44-22,Amy's,,Click on the girl that has all of Amy's plates,1,3_spoons,girl,2_forks,3_knives,2_plates,1_spoon,1_knife,boy,boy,girl,,,,,,,,child with the plates,13014,kitchenwares,small,,4,10,,girl,,2_plates,3,,child,1,1,noDet,1
5,54,List1,Exp,,BoyAllMichaelScissors,,2,8,all,,AOI1,AOI7,all,,7,33-33,Michael's,,Click on the boy that has all of Michael's scissors,1,3_scissors,girl,2_pencils,3_erasers,2_rulers,1_pencil,1_ruler,boy,boy,girl,,,,,,,,child with three scissors,23751,stationeries,big,,1,7,,boy,,3_scissors,4,,child,1,1,three,1
6,54,List1,Exp,,BoyThreeMichaelErasers,,1,7,num,,AOI2,AOI8,three,,27,44-22,Michael's,,Click on the boy that has three of Michael's erasers,1,2_rulers,girl,3_erasers,2_scissors,3_pencils,1_pencil,1_eraser,boy,boy,girl,,,,,,,,child with three erasers,5968,stationeries,big,,2,8,,boy,,3_erasers,5,,child,1,1,three,1
7,54,List1,Filler,,GirlOneSusanPears,,3,9,one,,AOI4,AOI10,one,,42,33-33,Susan's,,Click on the girl that has one of Susan's pears,1,3_bananas,girl,3_oranges,3_apples,1_pear,2_pears,0,boy,boy,girl,,,,,,,,child with one pear,4737,fruit,small,,4,10,,girl,,1_pear,6,,child,1,1,one,1
8,54,List1,Exp,,GirlSomeAmyForks,,4,10,some,,AOI3,AOI9,some,,34,44-22,Amy's,,Click on the girl that has some of Amy's forks,1,2_spoons,girl,3_plates,3_forks,2_knives,1_fork,1_plate,boy,boy,girl,,,,,,,,child with three forks,4941,kitchenwares,big,,3,9,,girl,,3_forks,7,,child,1,1,three,1
9,54,List1,Filler,,GirlFourSusanOranges,,4,10,four,,AOI3,AOI9,four,,45,44-22,Susan's,,Click on the girl that has four of Susan's oranges,1,2_pears,girl,3_apples,4_oranges,1_banana,1_banana,1_apple,boy,boy,girl,,,,,,,,child with four oranges,5345,fruit,big,,3,9,,girl,,4_oranges,8,,child,1,1,four,1
10,54,List1,Exp,,GirlSomeSusanApples,,4,10,some,,AOI3,AOI9,some,,20,44-22,Susan's,,Click on the girl that has some of Susan's apples,1,3_pears,girl,2_bananas,3_apples,2_oranges,1_apple,1_pear,boy,boy,girl,,,,,,,,child with three apples,9816,fruit,big,,3,9,,girl,,3_apples,9,,child,1,1,three,1
11,54,List1,Exp,,GirlSomeMichaelRulers,,3,9,some,,AOI4,AOI10,some,,30,44-22,Michael's,,Click on the girl that has some of Michael's rulers,1,3_erasers,girl,2_pencils,2_scissors,3_rulers,1_ruler,1_eraser,boy,boy,girl,,,,,,,,child with three rulers,4455,stationeries,big,,4,10,,girl,,3_rulers,10,,child,1,1,three,1
12,54,List1,Exp,,BoyTwoSusanApples,,2,8,num,,AOI1,AOI7,two,,24,44-22,Susan's,,Click on the boy that has two of Susan's apples,1,2_apples,girl,3_pears,3_bananas,2_oranges,1_banana,1_pear,boy,boy,girl,,,,,,,,child with two apples,4768,fruit,small,,1,7,,boy,,2_apples,11,,child,1,1,two,1
13,54,List1,Filler,,GirlFourMichaelPencils,,3,9,four,,AOI4,AOI10,four,,48,44-22,Michael's,,Click on the girl that has four of Michael's pencils,1,1_ruler,girl,2_erasers,3_scissors,4_pencils,1_ruler,1_scissor,boy,boy,girl,,,,,,,,child with four pens,6841,stationeries,big,,4,10,,girl,,4_pencils,12,,child,1,pens,four,1
14,54,List1,Exp,,BoyThreeAmyKnives,,1,7,num,,AOI2,AOI8,three,,14,33-33,Amy's,,Click on the boy that has three of Amy's knives,1,2_spoons,girl,3_knives,2_plates,3_forks,1_spoon,1_plate,boy,boy,girl,,,,,,,,child with three knives,5152,kitchenwares,big,,2,8,,boy,,3_knives,13,,child,1,1,three,1
15,54,List1,Exp,,GirlThreeSusanPears,,3,9,num,,AOI4,AOI10,three,,6,33-33,Susan's,,Click on the girl that has three of Susan's pears,1,2_oranges,girl,3_bananas,2_apples,3_pears,1_apple,1_orange,boy,boy,girl,,,,,,,,child with three pears,6560,fruit,big,,4,10,,girl,,3_pears,14,,child,1,1,three,1
16,54,List1,Exp,,GirlThreeSusanOranges,,4,10,num,,AOI3,AOI9,three,,23,44-22,Susan's,,Click on the girl that has three of Susan's oranges,1,3_apples,girl,2_pears,3_oranges,2_bananas,1_apple,1_orange,boy,boy,girl,,,,,,,,child with three oranges,5287,fruit,big,,3,9,,girl,,3_oranges,15,,child,1,1,three,1
17,54,List1,Exp,,GirlTwoSusanBananas,,3,9,num,,AOI4,AOI10,two,,5,33-33,Susan's,,Click on the girl that has two of Susan's bananas,1,2_pears,girl,3_apples,3_oranges,2_bananas,1_banana,1_pear,boy,boy,girl,,,,,,,,child with two bananas,4376,fruit,small,,4,10,,girl,,2_bananas,16,,child,1,1,two,1
18,54,List1,Filler,,GirlFourAmyKnives,,4,10,four,,AOI3,AOI9,four,,46,44-22,Amy's,,Click on the girl that has four of Amy's knives,1,1_spoon,girl,3_plates,4_knives,2_forks,1_spoon,1_plate,boy,boy,girl,,,,,,,,child with four knives,4361,kitchenwares,big,,3,9,,girl,,4_knives,17,,child,1,1,four,1
19,54,List1,Filler,,GirlOneMichaelErasers,,4,10,one,,AOI3,AOI9,one,,41,33-33,Michael's,,Click on the girl that has one of Michael's erasers,1,3_pencils,girl,3_scissors,1_eraser,3_rulers,2_erasers,0,boy,boy,girl,,,,,,,,child with one eraser,4615,stationeries,small,,3,9,,girl,,1_eraser,18,,child,1,1,one,1
20,54,List1,Exp,,BoyTwoMichaelPencils,,1,7,num,,AOI2,AOI8,two,,28,44-22,Michael's,,Click on the boy that has two of Michael's pencils,1,3_scissors,girl,2_pencils,2_erasers,3_rulers,1_ruler,1_scissor,boy,boy,girl,,,,,,,,child with two pens,2599,stationeries,small,,2,8,,boy,,2_pencils,19,,child,1,pens,two,1
21,54,List1,Exp,,BoyAllAmyKnives,,2,8,all,,AOI1,AOI7,all,,18,33-33,Amy's,,Click on the boy that has all of Amy's knives,1,3_knives,girl,2_plates,3_spoons,2_forks,1_plate,1_fork,boy,boy,girl,,,,,,,,child with three knives,5713,kitchenwares,big,,1,7,,boy,,3_knives,20,,child,1,1,three,1
22,54,List1,Exp,,GirlAllSusanBananas,,4,10,all,,AOI3,AOI9,all,,4,33-33,Susan's,,Click on the girl that has all of Susan's bananas,1,2_pears,girl,3_apples,3_bananas,2_oranges,1_orange,1_pear,boy,boy,girl,,,,,,,,child with three bananas,6903,fruit,big,,3,9,,girl,,3_bananas,21,,child,1,1,three,1
23,54,List1,Filler,,BoyOneAmyPlates,,2,8,one,,AOI1,AOI7,one,,38,33-33,Amy's,,Click on the boy that has one of Amy's plates,1,1_plate,girl,3_knives,3_forks,3_spoons,2_plates,0,boy,boy,girl,,,,,,,,child with one plate,3240,kitchenwares,small,,1,7,,boy,,1_plate,22,,child,1,1,one,1
24,54,List1,Filler,,GirlFourAmyPlates,,3,9,four,,AOI4,AOI10,four,,47,44-22,Amy's,,Click on the girl that has four of Amy's plates,1,1_knife,girl,3_forks,2_spoons,4_plates,1_knife,1_fork,boy,boy,girl,,,,,,,,child with four plates,3784,kitchenwares,big,,4,10,,girl,,4_plates,23,,child,1,1,four,1
25,54,List1,Exp,,BoySomeMichaelErasers,,2,8,some,,AOI1,AOI7,some,,11,33-33,Michael's,,Click on the boy that has some of Michael's erasers,1,2_erasers,girl,3_pencils,2_rulers,3_scissors,1_ruler,1_eraser,boy,boy,girl,,,,,,,,child with two erasers,6418,stationeries,small,,1,7,,boy,,2_erasers,24,,child,1,1,two,1
26,54,List1,Exp,,BoySomeMichaelPencils,,2,8,some,,AOI1,AOI7,some,,29,44-22,Michael's,,Click on the boy that has some of Michael's pencils,1,3_pencils,girl,2_erasers,3_scissors,2_rulers,1_pencil,1_scissor,boy,boy,girl,,,,,,,,child with three pens,3414,stationeries,big,,1,7,,boy,,3_pencils,25,,child,1,pens,three,1
27,54,List1,Exp,,GirlAllMichaelErasers,,4,10,all,,AOI3,AOI9,all,,26,44-22,Michael's,,Click on the girl that has all of Michael's erasers,1,3_pencils,girl,2_scissors,2_erasers,3_rulers,1_pencil,1_ruler,boy,boy,girl,,,,,,,,child with two erasers,5633,stationeries,small,,3,9,,girl,,2_erasers,26,,child,1,1,two,1
28,54,List1,Exp,,BoyThreeAmyPlates,,2,8,num,,AOI1,AOI7,three,,31,44-22,Amy's,,Click on the boy that has three of Amy's plates,1,3_plates,girl,2_forks,3_spoons,2_knives,1_spoon,1_plate,boy,boy,girl,,,,,,,,child with three plates,3815,kitchenwares,big,,1,7,,boy,,3_plates,27,,child,1,1,three,1
29,54,List1,Exp,,BoyAllSusanApples,,2,8,all,,AOI1,AOI7,all,,22,44-22,Susan's,,Click on the boy that has all of Susan's apples,1,2_apples,girl,3_pears,3_oranges,2_bananas,1_orange,1_pear,boy,boy,girl,,,,,,,,child with two apples,5784,fruit,small,,1,7,,boy,,2_apples,28,,child,1,1,two,1
30,54,List1,Exp,,GirlSomeAmyKnives,,4,10,some,,AOI3,AOI9,some,,15,33-33,Amy's,,Click on the girl that has some of Amy's knives,1,2_spoons,girl,3_plates,2_knives,3_forks,1_spoon,1_knife,boy,boy,girl,,,,,,,,child with two nives,3240,kitchenwares,small,,3,9,,girl,,2_knives,29,,child,1,1,two,1
31,54,List1,Exp,,BoyTwoAmySpoons,,2,8,num,,AOI1,AOI7,two,,32,44-22,Amy's,,Click on the boy that has two of Amy's spoons,1,2_spoons,girl,3_knives,3_forks,2_plates,1_fork,1_knife,boy,boy,girl,,,,,,,,child with two spoons,5033,kitchenwares,small,,1,7,,boy,,2_spoons,30,,child,1,1,two,1
32,54,List1,Filler,,BoyOneSusanApples,,2,8,one,,AOI1,AOI7,one,,37,33-33,Susan's,,Click on the boy that has one of Susan's apples,1,1_apple,girl,3_pears,3_bananas,3_oranges,2_apples,0,boy,boy,girl,,,,,,,,child with one apple,5207,fruit,small,,1,7,,boy,,1_apple,31,,child,1,1,one,1
33,54,List1,Exp,,BoySomeAmySpoons,,1,7,some,,AOI2,AOI8,some,,33,44-22,Amy's,,Click on the boy that has some of Amy's spoons,1,2_plates,girl,3_spoons,2_forks,3_knives,1_spoon,1_knife,boy,boy,girl,,,,,,,,child with three spoons,3553,kitchenwares,big,,2,8,,boy,,3_spoons,32,,child,1,1,three,1
34,54,List1,Exp,,BoySomeSusanOranges,,1,7,some,,AOI2,AOI8,some,,2,33-33,Susan's,,Click on the boy that has some of Susan's oranges,1,3_apples,girl,2_oranges,2_bananas,3_pears,1_banana,1_orange,boy,boy,girl,,,,,,,,child with two oranges,3632,fruit,small,,2,8,,boy,,2_oranges,33,,child,1,1,two,1
35,54,List1,Exp,,BoySomeMichaelScissors,,1,7,some,,AOI2,AOI8,some,,12,33-33,Michael's,,Click on the boy that has some of Michael's scissors,1,3_rulers,girl,2_scissors,2_pencils,3_erasers,1_pencil,1_scissor,boy,boy,girl,,,,,,,,child with two scissors,4719,stationeries,small,,2,8,,boy,,2_scissors,34,,child,1,1,two,1
36,54,List1,Exp,,GirlAllMichaelRulers,,3,9,all,,AOI4,AOI10,all,,8,33-33,Michael's,,Click on the girl that has all of Michael's rulers,1,2_scissors,girl,3_pencils,2_erasers,3_rulers,1_eraser,1_scissor,boy,boy,girl,,,,,,,,three rulers,3536,stationeries,big,,4,10,,girl,,3_rulers,35,,noGender,1,1,three,1
37,54,List1,Exp,,GirlAllMichaelPencils,,3,9,all,,AOI4,AOI10,all,,25,44-22,Michael's,,Click on the girl that has all of Michael's pencils,1,3_erasers,girl,2_rulers,3_scissors,2_pencils,1_eraser,1_scissor,boy,boy,girl,,,,,,,,child with two pens,4632,stationeries,small,,4,10,,girl,,2_pencils,36,,child,1,pens,two,1
38,54,List1,Exp,,GirlThreeMichaelScissors,,4,10,num,,AOI3,AOI9,three,,10,33-33,Michael's,,Click on the girl that has three of Michael's scissors,1,3_rulers,girl,2_erasers,3_scissors,2_pencils,1_pencil,1_eraser,boy,boy,girl,,,,,,,,child with three scissors,6961,stationeries,big,,3,9,,girl,,3_scissors,37,,child,1,1,three,1
39,54,List1,Exp,,BoyAllSusanOranges,,1,7,all,,AOI2,AOI8,all,,21,44-22,Susan's,,Click on the boy that has all of Susan's oranges,1,3_bananas,girl,2_oranges,3_apples,2_pears,1_apple,1_banana,boy,boy,girl,,,,,,,,child with two oranges,3639,fruit,small,,2,8,,boy,,2_oranges,38,,child,1,1,two,1
40,54,List1,Filler,,BoyFourSusanBananas,,1,7,four,,AOI2,AOI8,four,,44,44-22,Susan's,,Click on the boy that has four of Susan's bananas,1,1_orange,girl,4_bananas,3_pears,2_apples,1_orange,1_pear,boy,boy,girl,,,,,,,,child with four bananas,4441,fruit,big,,2,8,,boy,,4_bananas,39,,child,1,1,four,1
41,54,List1,Exp,,GirlSomeSusanBananas,,3,9,some,,AOI4,AOI10,some,,19,44-22,Susan's,,Click on the girl that has some of Susan's bananas,1,3_oranges,girl,2_apples,2_pears,3_bananas,1_banana,1_orange,boy,boy,girl,,,,,,,,child with three bananas,5793,fruit,big,,4,10,,girl,,3_bananas,40,,child,1,1,three,1
42,54,List1,Exp,,BoyAllSusanPears,,1,7,all,,AOI2,AOI8,all,,3,33-33,Susan's,,Click on the boy that has all of Susan's pears,1,2_apples,girl,3_pears,2_bananas,3_oranges,1_apple,1_banana,boy,boy,girl,,,,,,,,child with 3 pears,5327,fruit,big,,2,8,,boy,,3_pears,41,,child,1,1,three,1
43,54,List1,Exp,,GirlSomeAmyPlates,,3,9,some,,AOI4,AOI10,some,,16,33-33,Amy's,,Click on the girl that has some of Amy's plates,1,2_forks,girl,3_knives,3_spoons,2_plates,1_fork,1_plate,boy,boy,girl,,,,,,,,child with 2 plates,8336,kitchenwares,small,,4,10,,girl,,2_plates,42,,child,1,1,two,1
44,54,List1,Exp,,GirlTwoMichaelRulers,,4,10,num,,AOI3,AOI9,two,,9,33-33,Michael's,,Click on the girl that has two of Michael's rulers,1,3_pencils,girl,2_scissors,2_rulers,3_erasers,1_ruler,1_scissor,boy,boy,girl,,,,,,,,child with two rulers,6064,stationeries,small,,3,9,,girl,,2_rulers,43,,child,1,1,two,1
45,54,List1,Exp,,BoyAllAmyForks,,1,7,all,,AOI2,AOI8,all,,17,33-33,Amy's,,Click on the boy that has all of Amy's forks,1,2_spoons,girl,3_forks,2_knives,3_plates,1_spoon,1_knife,boy,boy,girl,,,,,,,,child with 3 forks,3384,kitchenwares,big,,2,8,,boy,,3_forks,44,,child,1,1,three,1
46,54,List1,Filler,,BoyFourMichaelScissors,,2,8,four,,AOI1,AOI7,four,,43,44-22,Michael's,,Click on the boy that has four of Michael's scissors,1,4_scissors,girl,1_pencil,2_rulers,3_erasers,1_pencil,1_eraser,boy,boy,girl,,,,,,,,child with 4 scissors,4815,stationeries,big,,1,7,,boy,,4_scissors,45,,child,1,1,four,1
47,54,List1,Filler,,BoyOneAmySpoons,,1,7,one,,AOI2,AOI8,one,,39,33-33,Amy's,,Click on the boy that has one of Amy's spoons,1,3_forks,girl,1_spoon,3_plates,3_knives,2_spoons,0,boy,boy,girl,,,,,,,,child with the spoon,4968,kitchenwares,small,,2,8,,boy,,1_spoon,46,,child,1,1,noDet,1
48,54,List1,Filler,,BoyOneMichaelRulers,,1,7,one,,AOI2,AOI8,one,,40,33-33,Michael's,,Click on the boy that has one of Michael's rulers,1,3_erasers,girl,1_ruler,3_pencils,3_scissors,2_scissors,0,boy,boy,girl,,,,,,,,child with the ruler,5520,stationeries,small,,2,8,,boy,,1_ruler,47,,child,1,1,noDet,1
49,54,List1,Exp,,GirlTwoAmyForks,,3,9,num,,AOI4,AOI10,two,,13,33-33,Amy's,,Click on the girl that has two of Amy's forks,1,2_knives,girl,3_spoons,3_plates,2_forks,1_fork,1_knife,boy,boy,girl,,,,,,,,child with two forks,6576,kitchenwares,small,,4,10,,girl,,2_forks,48,,child,1,1,two,1
50,63,List1,Prac,kitchware_Amy_Monday,,Residue_kitchen,4,,,num,AOI3,AOI9,,three,5,44-22,Amy,Click on the girl that has three of Amy's knives,,,2_spoons,girl,3_forks,3_knives,2_plates,1_fork,1_knife,boy,boy,girl,knives,D4_forks,D2_spoons,D4_knives,production practice,1,GirlThreeAmyknives,girl with the knives,,kitchenwares,,big,3,,girl,,3_knives,,,,girl,0,0,noDet,1
51,63,List1,Prac,kitchware_Amy_Tuesday,,Slience,2,,,some,AOI4,AOI10,,some,6,33-33,Amy,Click on the girl that has some of Amy's forks,,,3_spoons,girl,2_knives,3_plates,2_forks,1_fork,1_knife,boy,boy,girl,forks,D3_forks,D3_spoons,D3_knives,production practice,2,GirlSomeAmyforks,girl with the forks,,kitchenwares,,big,4,,girl,,2_forks,,,,girl,0,0,noDet,1
52,63,List1,Filler,,BoyOneAmySpoons,,1,7,one,,AOI2,AOI8,one,,39,33-33,Amy's,,Click on the boy that has one of Amy's spoons,1,3_forks,girl,1_spoon,3_plates,3_knives,2_spoons,0,boy,boy,girl,,,,,,,,boy with spoon,4878,kitchenwares,small,,2,8,,boy,,1_spoon,1,,boy,1,1,noDet,1
53,63,List1,Exp,,GirlAllAmyPlates,,3,9,all,,AOI4,AOI10,all,,35,44-22,Amy's,,Click on the girl that has all of Amy's plates,1,3_spoons,girl,2_forks,3_knives,2_plates,1_spoon,1_knife,boy,boy,girl,,,,,,,,girl with plates,3723,kitchenwares,small,,4,10,,girl,,2_plates,2,,girl,1,1,noDet,1
54,63,List1,Exp,,BoyThreeAmyKnives,,1,7,num,,AOI2,AOI8,three,,14,33-33,Amy's,,Click on the boy that has three of Amy's knives,1,2_spoons,girl,3_knives,2_plates,3_forks,1_spoon,1_plate,boy,boy,girl,,,,,,,,boy with knives,2764,kitchenwares,big,,2,8,,boy,,3_knives,3,,boy,1,1,noDet,1
55,63,List1,Exp,,BoyAllAmyForks,,1,7,all,,AOI2,AOI8,all,,17,33-33,Amy's,,Click on the boy that has all of Amy's forks,1,2_spoons,girl,3_forks,2_knives,3_plates,1_spoon,1_knife,boy,boy,girl,,,,,,,,boy with forks,2143,kitchenwares,big,,2,8,,boy,,3_forks,4,,boy,1,1,noDet,1
56,63,List1,Exp,,GirlSomeAmyKnives,,4,10,some,,AOI3,AOI9,some,,15,33-33,Amy's,,Click on the girl that has some of Amy's knives,1,2_spoons,girl,3_plates,2_knives,3_forks,1_spoon,1_knife,boy,boy,girl,,,,,,,,girl with knives,2409,kitchenwares,small,,3,9,,girl,,2_knives,5,,girl,1,1,noDet,1
57,63,List1,Exp,,BoySomeMichaelScissors,,1,7,some,,AOI2,AOI8,some,,12,33-33,Michael's,,Click on the boy that has some of Michael's scissors,1,3_rulers,girl,2_scissors,2_pencils,3_erasers,1_pencil,1_scissor,boy,boy,girl,,,,,,,,boy with scissors,3433,stationeries,small,,2,8,,boy,,2_scissors,6,,boy,1,1,noDet,1
58,63,List1,Filler,,BoyOneMichaelRulers,,1,7,one,,AOI2,AOI8,one,,40,33-33,Michael's,,Click on the boy that has one of Michael's rulers,1,3_erasers,girl,1_ruler,3_pencils,3_scissors,2_scissors,0,boy,boy,girl,,,,,,,,boy with ruler,2345,stationeries,small,,2,8,,boy,,1_ruler,7,,boy,1,1,noDet,1
59,63,List1,Exp,,GirlAllMichaelRulers,,3,9,all,,AOI4,AOI10,all,,8,33-33,Michael's,,Click on the girl that has all of Michael's rulers,1,2_scissors,girl,3_pencils,2_erasers,3_rulers,1_eraser,1_scissor,boy,boy,girl,,,,,,,,girl with rulers,2598,stationeries,big,,4,10,,girl,,3_rulers,8,,girl,1,1,noDet,1
60,63,List1,Filler,,GirlOneMichaelErasers,,4,10,one,,AOI3,AOI9,one,,41,33-33,Michael's,,Click on the girl that has one of Michael's erasers,1,3_pencils,girl,3_scissors,1_eraser,3_rulers,2_erasers,0,boy,boy,girl,,,,,,,,girl with erasers,3287,stationeries,small,,3,9,,girl,,1_eraser,9,,girl,1,1,noDet,1
61,63,List1,Exp,,GirlSomeAmyPlates,,3,9,some,,AOI4,AOI10,some,,16,33-33,Amy's,,Click on the girl that has some of Amy's plates,1,2_forks,girl,3_knives,3_spoons,2_plates,1_fork,1_plate,boy,boy,girl,,,,,,,,girl with plates,2721,kitchenwares,small,,4,10,,girl,,2_plates,10,,girl,1,1,noDet,1
62,63,List1,Exp,,BoyThreeAmyPlates,,2,8,num,,AOI1,AOI7,three,,31,44-22,Amy's,,Click on the boy that has three of Amy's plates,1,3_plates,girl,2_forks,3_spoons,2_knives,1_spoon,1_plate,boy,boy,girl,,,,,,,,boy with plates,2511,kitchenwares,big,,1,7,,boy,,3_plates,11,,boy,1,1,noDet,1
63,63,List1,Exp,,BoyAllAmyKnives,,2,8,all,,AOI1,AOI7,all,,18,33-33,Amy's,,Click on the boy that has all of Amy's knives,1,3_knives,girl,2_plates,3_spoons,2_forks,1_plate,1_fork,boy,boy,girl,,,,,,,,boy with knives,2586,kitchenwares,big,,1,7,,boy,,3_knives,12,,boy,1,1,noDet,1
64,63,List1,Filler,,GirlFourMichaelPencils,,3,9,four,,AOI4,AOI10,four,,48,44-22,Michael's,,Click on the girl that has four of Michael's pencils,1,1_ruler,girl,2_erasers,3_scissors,4_pencils,1_ruler,1_scissor,boy,boy,girl,,,,,,,,girl with pencils,2487,stationeries,big,,4,10,,girl,,4_pencils,13,,girl,1,1,noDet,1
65,63,List1,Filler,,BoyOneAmyPlates,,2,8,one,,AOI1,AOI7,one,,38,33-33,Amy's,,Click on the boy that has one of Amy's plates,1,1_plate,girl,3_knives,3_forks,3_spoons,2_plates,0,boy,boy,girl,,,,,,,,boy with plate,2963,kitchenwares,small,,1,7,,boy,,1_plate,14,,boy,1,1,noDet,1
66,63,List1,Exp,,BoyAllSusanApples,,2,8,all,,AOI1,AOI7,all,,22,44-22,Susan's,,Click on the boy that has all of Susan's apples,1,2_apples,girl,3_pears,3_oranges,2_bananas,1_orange,1_pear,boy,boy,girl,,,,,,,,boy with apples,2338,fruit,small,,1,7,,boy,,2_apples,15,,boy,1,1,noDet,1
67,63,List1,Filler,,BoyFourSusanBananas,,1,7,four,,AOI2,AOI8,four,,44,44-22,Susan's,,Click on the boy that has four of Susan's bananas,1,1_orange,girl,4_bananas,3_pears,2_apples,1_orange,1_pear,boy,boy,girl,,,,,,,,boy with bananas,3642,fruit,big,,2,8,,boy,,4_bananas,16,,boy,1,1,noDet,1
68,63,List1,Exp,,GirlThreeMichaelScissors,,4,10,num,,AOI3,AOI9,three,,10,33-33,Michael's,,Click on the girl that has three of Michael's scissors,1,3_rulers,girl,2_erasers,3_scissors,2_pencils,1_pencil,1_eraser,boy,boy,girl,,,,,,,,girl with scissors,2731,stationeries,big,,3,9,,girl,,3_scissors,17,,girl,1,1,noDet,1
69,63,List1,Exp,,GirlSomeMichaelRulers,,3,9,some,,AOI4,AOI10,some,,30,44-22,Michael's,,Click on the girl that has some of Michael's rulers,1,3_erasers,girl,2_pencils,2_scissors,3_rulers,1_ruler,1_eraser,boy,boy,girl,,,,,,,,girl with rulers,2430,stationeries,big,,4,10,,girl,,3_rulers,18,,girl,1,1,noDet,1
70,63,List1,Exp,,BoyTwoSusanApples,,2,8,num,,AOI1,AOI7,two,,24,44-22,Susan's,,Click on the boy that has two of Susan's apples,1,2_apples,girl,3_pears,3_bananas,2_oranges,1_banana,1_pear,boy,boy,girl,,,,,,,,boy with apples,2108,fruit,small,,1,7,,boy,,2_apples,19,,boy,1,1,noDet,1
71,63,List1,Exp,,BoyAllMichaelScissors,,2,8,all,,AOI1,AOI7,all,,7,33-33,Michael's,,Click on the boy that has all of Michael's scissors,1,3_scissors,girl,2_pencils,3_erasers,2_rulers,1_pencil,1_ruler,boy,boy,girl,,,,,,,,boy with scissors,3229,stationeries,big,,1,7,,boy,,3_scissors,20,,boy,1,1,noDet,1
72,63,List1,Exp,,BoySomeSusanOranges,,1,7,some,,AOI2,AOI8,some,,2,33-33,Susan's,,Click on the boy that has some of Susan's oranges,1,3_apples,girl,2_oranges,2_bananas,3_pears,1_banana,1_orange,boy,boy,girl,,,,,,,,boy with oranges,3292,fruit,small,,2,8,,boy,,2_oranges,21,,boy,1,1,noDet,1
73,63,List1,Exp,,BoyTwoAmySpoons,,2,8,num,,AOI1,AOI7,two,,32,44-22,Amy's,,Click on the boy that has two of Amy's spoons,1,2_spoons,girl,3_knives,3_forks,2_plates,1_fork,1_knife,boy,boy,girl,,,,,,,,boy with spoon,2373,kitchenwares,small,,1,7,,boy,,2_spoons,22,,boy,1,1,noDet,1
74,63,List1,Exp,,GirlAllMichaelPencils,,3,9,all,,AOI4,AOI10,all,,25,44-22,Michael's,,Click on the girl that has all of Michael's pencils,1,3_erasers,girl,2_rulers,3_scissors,2_pencils,1_eraser,1_scissor,boy,boy,girl,,,,,,,,girl with pencils,2977,stationeries,small,,4,10,,girl,,2_pencils,23,,girl,1,1,noDet,1
75,63,List1,Exp,,GirlThreeSusanPears,,3,9,num,,AOI4,AOI10,three,,6,33-33,Susan's,,Click on the girl that has three of Susan's pears,1,2_oranges,girl,3_bananas,2_apples,3_pears,1_apple,1_orange,boy,boy,girl,,,,,,,,girl with pears,2210,fruit,big,,4,10,,girl,,3_pears,24,,girl,1,1,noDet,1
76,63,List1,Exp,,GirlTwoSusanBananas,,3,9,num,,AOI4,AOI10,two,,5,33-33,Susan's,,Click on the girl that has two of Susan's bananas,1,2_pears,girl,3_apples,3_oranges,2_bananas,1_banana,1_pear,boy,boy,girl,,,,,,,,girl with bananas,4255,fruit,small,,4,10,,girl,,2_bananas,25,,girl,1,1,noDet,1
77,63,List1,Exp,,GirlAllMichaelErasers,,4,10,all,,AOI3,AOI9,all,,26,44-22,Michael's,,Click on the girl that has all of Michael's erasers,1,3_pencils,girl,2_scissors,2_erasers,3_rulers,1_pencil,1_ruler,boy,boy,girl,,,,,,,,girl with erasers,2292,stationeries,small,,3,9,,girl,,2_erasers,26,,girl,1,1,noDet,1
78,63,List1,Exp,,BoySomeSusanPears,,2,8,some,,AOI1,AOI7,some,,1,33-33,Susan's,,Click on the boy that has some of Susan's pears,1,2_pears,girl,3_bananas,2_apples,3_oranges,1_apple,1_pear,boy,boy,girl,,,,,,,,boy with pears,1948,fruit,small,,1,7,,boy,,2_pears,27,,boy,1,1,noDet,1
79,63,List1,Exp,,BoySomeMichaelPencils,,2,8,some,,AOI1,AOI7,some,,29,44-22,Michael's,,Click on the boy that has some of Michael's pencils,1,3_pencils,girl,2_erasers,3_scissors,2_rulers,1_pencil,1_scissor,boy,boy,girl,,,,,,,,boy with pencils,2595,stationeries,big,,1,7,,boy,,3_pencils,28,,boy,1,1,noDet,1
80,63,List1,Exp,,GirlAllAmySpoons,,4,10,all,,AOI3,AOI9,all,,36,44-22,Amy's,,Click on the girl that has all of Amy's spoons,1,3_plates,girl,2_knives,2_spoons,3_forks,1_plate,1_fork,boy,boy,girl,,,,,,,,girl with spoons,2711,kitchenwares,small,,3,9,,girl,,2_spoons,29,,girl,1,1,noDet,1
81,63,List1,Filler,,GirlFourSusanOranges,,4,10,four,,AOI3,AOI9,four,,45,44-22,Susan's,,Click on the girl that has four of Susan's oranges,1,2_pears,girl,3_apples,4_oranges,1_banana,1_banana,1_apple,boy,boy,girl,,,,,,,,girl with oranges,2922,fruit,big,,3,9,,girl,,4_oranges,30,,girl,1,1,noDet,1
82,63,List1,Filler,,BoyOneSusanApples,,2,8,one,,AOI1,AOI7,one,,37,33-33,Susan's,,Click on the boy that has one of Susan's apples,1,1_apple,girl,3_pears,3_bananas,3_oranges,2_apples,0,boy,boy,girl,,,,,,,,boy with apple,2064,fruit,small,,1,7,,boy,,1_apple,31,,boy,1,1,noDet,1
83,63,List1,Filler,,GirlFourAmyKnives,,4,10,four,,AOI3,AOI9,four,,46,44-22,Amy's,,Click on the girl that has four of Amy's knives,1,1_spoon,girl,3_plates,4_knives,2_forks,1_spoon,1_plate,boy,boy,girl,,,,,,,,girl with knives,3490,kitchenwares,big,,3,9,,girl,,4_knives,32,,girl,1,1,noDet,1
84,63,List1,Filler,,GirlOneSusanPears,,3,9,one,,AOI4,AOI10,one,,42,33-33,Susan's,,Click on the girl that has one of Susan's pears,1,3_bananas,girl,3_oranges,3_apples,1_pear,2_pears,0,boy,boy,girl,,,,,,,,girl with pear,2289,fruit,small,,4,10,,girl,,1_pear,33,,girl,1,1,noDet,1
85,63,List1,Exp,,BoySomeMichaelErasers,,2,8,some,,AOI1,AOI7,some,,11,33-33,Michael's,,Click on the boy that has some of Michael's erasers,1,2_erasers,girl,3_pencils,2_rulers,3_scissors,1_ruler,1_eraser,boy,boy,girl,,,,,,,,boy with erasers,2879,stationeries,small,,1,7,,boy,,2_erasers,34,,boy,1,1,noDet,1
86,63,List1,Filler,,GirlFourAmyPlates,,3,9,four,,AOI4,AOI10,four,,47,44-22,Amy's,,Click on the girl that has four of Amy's plates,1,1_knife,girl,3_forks,2_spoons,4_plates,1_knife,1_fork,boy,boy,girl,,,,,,,,girl with plates,2648,kitchenwares,big,,4,10,,girl,,4_plates,35,,girl,1,1,noDet,1
87,63,List1,Filler,,BoyFourMichaelScissors,,2,8,four,,AOI1,AOI7,four,,43,44-22,Michael's,,Click on the boy that has four of Michael's scissors,1,4_scissors,girl,1_pencil,2_rulers,3_erasers,1_pencil,1_eraser,boy,boy,girl,,,,,,,,boy with scissors,3145,stationeries,big,,1,7,,boy,,4_scissors,36,,boy,1,1,noDet,1
88,63,List1,Exp,,GirlThreeSusanOranges,,4,10,num,,AOI3,AOI9,three,,23,44-22,Susan's,,Click on the girl that has three of Susan's oranges,1,3_apples,girl,2_pears,3_oranges,2_bananas,1_apple,1_orange,boy,boy,girl,,,,,,,,girl with oranges,1924,fruit,big,,3,9,,girl,,3_oranges,37,,girl,1,1,noDet,1
89,63,List1,Exp,,BoySomeAmySpoons,,1,7,some,,AOI2,AOI8,some,,33,44-22,Amy's,,Click on the boy that has some of Amy's spoons,1,2_plates,girl,3_spoons,2_forks,3_knives,1_spoon,1_knife,boy,boy,girl,,,,,,,,boy with spoons,2065,kitchenwares,big,,2,8,,boy,,3_spoons,38,,boy,1,1,noDet,1
90,63,List1,Exp,,GirlTwoAmyForks,,3,9,num,,AOI4,AOI10,two,,13,33-33,Amy's,,Click on the girl that has two of Amy's forks,1,2_knives,girl,3_spoons,3_plates,2_forks,1_fork,1_knife,boy,boy,girl,,,,,,,,girl with forks,2176,kitchenwares,small,,4,10,,girl,,2_forks,39,,girl,1,1,noDet,1
91,63,List1,Exp,,BoyAllSusanOranges,,1,7,all,,AOI2,AOI8,all,,21,44-22,Susan's,,Click on the boy that has all of Susan's oranges,1,3_bananas,girl,2_oranges,3_apples,2_pears,1_apple,1_banana,boy,boy,girl,,,,,,,,boy with oranges,2011,fruit,small,,2,8,,boy,,2_oranges,40,,boy,1,1,noDet,1
92,63,List1,Exp,,BoyThreeMichaelErasers,,1,7,num,,AOI2,AOI8,three,,27,44-22,Michael's,,Click on the boy that has three of Michael's erasers,1,2_rulers,girl,3_erasers,2_scissors,3_pencils,1_pencil,1_eraser,boy,boy,girl,,,,,,,,boy with erasers,3322,stationeries,big,,2,8,,boy,,3_erasers,41,,boy,1,1,noDet,1
93,63,List1,Exp,,GirlSomeAmyForks,,4,10,some,,AOI3,AOI9,some,,34,44-22,Amy's,,Click on the girl that has some of Amy's forks,1,2_spoons,girl,3_plates,3_forks,2_knives,1_fork,1_plate,boy,boy,girl,,,,,,,,girl with forks,2109,kitchenwares,big,,3,9,,girl,,3_forks,42,,girl,1,1,noDet,1
94,63,List1,Exp,,GirlSomeSusanBananas,,3,9,some,,AOI4,AOI10,some,,19,44-22,Susan's,,Click on the girl that has some of Susan's bananas,1,3_oranges,girl,2_apples,2_pears,3_bananas,1_banana,1_orange,boy,boy,girl,,,,,,,,girl with bananas,2581,fruit,big,,4,10,,girl,,3_bananas,43,,girl,1,1,noDet,1
95,63,List1,Exp,,BoyTwoMichaelPencils,,1,7,num,,AOI2,AOI8,two,,28,44-22,Michael's,,Click on the boy that has two of Michael's pencils,1,3_scissors,girl,2_pencils,2_erasers,3_rulers,1_ruler,1_scissor,boy,boy,girl,,,,,,,,boy with pencils,2332,stationeries,small,,2,8,,boy,,2_pencils,44,,boy,1,1,noDet,1
96,63,List1,Exp,,GirlTwoMichaelRulers,,4,10,num,,AOI3,AOI9,two,,9,33-33,Michael's,,Click on the girl that has two of Michael's rulers,1,3_pencils,girl,2_scissors,2_rulers,3_erasers,1_ruler,1_scissor,boy,boy,girl,,,,,,,,girl with rulers,3331,stationeries,small,,3,9,,girl,,2_rulers,45,,girl,1,1,noDet,1
97,63,List1,Exp,,GirlSomeSusanApples,,4,10,some,,AOI3,AOI9,some,,20,44-22,Susan's,,Click on the girl that has some of Susan's apples,1,3_pears,girl,2_bananas,3_apples,2_oranges,1_apple,1_pear,boy,boy,girl,,,,,,,,girl with apples,2571,fruit,big,,3,9,,girl,,3_apples,46,,girl,1,1,noDet,1
98,63,List1,Exp,,BoyAllSusanPears,,1,7,all,,AOI2,AOI8,all,,3,33-33,Susan's,,Click on the boy that has all of Susan's pears,1,2_apples,girl,3_pears,2_bananas,3_oranges,1_apple,1_banana,boy,boy,girl,,,,,,,,boy with pears,2421,fruit,big,,2,8,,boy,,3_pears,47,,boy,1,1,noDet,1
99,63,List1,Exp,,GirlAllSusanBananas,,4,10,all,,AOI3,AOI9,all,,4,33-33,Susan's,,Click on the girl that has all of Susan's bananas,1,2_pears,girl,3_apples,3_bananas,2_oranges,1_orange,1_pear,boy,boy,girl,,,,,,,,girl with bnanas,2172,fruit,big,,3,9,,girl,,3_bananas,48,,girl,1,1,noDet,1
100,58,List1,Prac,kitchware_Amy_Monday,,Residue_kitchen,4,,,num,AOI3,AOI9,,three,5,44-22,Amy,Click on the girl that has three of Amy's knives,,,2_spoons,girl,3_forks,3_knives,2_plates,1_fork,1_knife,boy,boy,girl,knives,D4_forks,D2_spoons,D4_knives,production practice,1,GirlThreeAmyknives,girl and three knives.,,kitchenwares,,big,3,,girl,,3_knives,,,,girl,0,0,three,0
101,58,List1,Prac,kitchware_Amy_Tuesday,,Slience,2,,,some,AOI4,AOI10,,some,6,33-33,Amy,Click on the girl that has some of Amy's forks,,,3_spoons,girl,2_knives,3_plates,2_forks,1_fork,1_knife,boy,boy,girl,forks,D3_forks,D3_spoons,D3_knives,production practice,2,GirlSomeAmyforks,girl and two forks.,,kitchenwares,,big,4,,girl,,2_forks,,,,girl,0,0,two,0
102,58,List1,Exp,,BoySomeAmySpoons,,1,7,some,,AOI2,AOI8,some,,33,44-22,Amy's,,Click on the boy that has some of Amy's spoons,1,2_plates,girl,3_spoons,2_forks,3_knives,1_spoon,1_knife,boy,boy,girl,,,,,,,,boy and three spoons,5250,kitchenwares,big,,2,8,,boy,,3_spoons,1,,boy,1,1,three,1
103,58,List1,Exp,,GirlSomeAmyForks,,4,10,some,,AOI3,AOI9,some,,34,44-22,Amy's,,Click on the girl that has some of Amy's forks,1,2_spoons,girl,3_plates,3_forks,2_knives,1_fork,1_plate,boy,boy,girl,,,,,,,,girl and three forks,4970,kitchenwares,big,,3,9,,girl,,3_forks,2,,girl,1,1,three,1
104,58,List1,Exp,,GirlTwoMichaelRulers,,4,10,num,,AOI3,AOI9,two,,9,33-33,Michael's,,Click on the girl that has two of Michael's rulers,1,3_pencils,girl,2_scissors,2_rulers,3_erasers,1_ruler,1_scissor,boy,boy,girl,,,,,,,,girl and two rulers,4718,stationeries,small,,3,9,,girl,,2_rulers,3,,girl,1,1,two,1
105,58,List1,Exp,,BoyAllSusanPears,,1,7,all,,AOI2,AOI8,all,,3,33-33,Susan's,,Click on the boy that has all of Susan's pears,1,2_apples,girl,3_pears,2_bananas,3_oranges,1_apple,1_banana,boy,boy,girl,,,,,,,,boy with three pairs,6555,fruit,big,,2,8,,boy,,3_pears,4,,boy,1,1,three,1
106,58,List1,Exp,,BoyAllSusanOranges,,1,7,all,,AOI2,AOI8,all,,21,44-22,Susan's,,Click on the boy that has all of Susan's oranges,1,3_bananas,girl,2_oranges,3_apples,2_pears,1_apple,1_banana,boy,boy,girl,,,,,,,,boy blushing and two oranges,5510,fruit,small,,2,8,,boy,,2_oranges,5,,boy,1,1,two,1
107,58,List1,Exp,,BoyAllAmyForks,,1,7,all,,AOI2,AOI8,all,,17,33-33,Amy's,,Click on the boy that has all of Amy's forks,1,2_spoons,girl,3_forks,2_knives,3_plates,1_spoon,1_knife,boy,boy,girl,,,,,,,,boy blushing and three forks,4668,kitchenwares,big,,2,8,,boy,,3_forks,6,,boy,1,1,three,1
108,58,List1,Exp,,GirlAllMichaelPencils,,3,9,all,,AOI4,AOI10,all,,25,44-22,Michael's,,Click on the girl that has all of Michael's pencils,1,3_erasers,girl,2_rulers,3_scissors,2_pencils,1_eraser,1_scissor,boy,boy,girl,,,,,,,,girl blushing and two penciils,8415,stationeries,small,,4,10,,girl,,2_pencils,7,,girl,1,1,two,1
109,58,List1,Filler,,BoyFourSusanBananas,,1,7,four,,AOI2,AOI8,four,,44,44-22,Susan's,,Click on the boy that has four of Susan's bananas,1,1_orange,girl,4_bananas,3_pears,2_apples,1_orange,1_pear,boy,boy,girl,,,,,,,,boy blushing and four bannanas.,7373,fruit,big,,2,8,,boy,,4_bananas,8,,boy,1,1,four,1
110,58,List1,Exp,,BoyAllMichaelScissors,,2,8,all,,AOI1,AOI7,all,,7,33-33,Michael's,,Click on the boy that has all of Michael's scissors,1,3_scissors,girl,2_pencils,3_erasers,2_rulers,1_pencil,1_ruler,boy,boy,girl,,,,,,,,"boy, and three scissors",7189,stationeries,big,,1,7,,boy,,3_scissors,9,,boy,1,1,three,1
111,58,List1,Exp,,GirlSomeAmyKnives,,4,10,some,,AOI3,AOI9,some,,15,33-33,Amy's,,Click on the girl that has some of Amy's knives,1,2_spoons,girl,3_plates,2_knives,3_forks,1_spoon,1_knife,boy,boy,girl,,,,,,,,girl blushing and two knives,5219,kitchenwares,small,,3,9,,girl,,2_knives,10,,girl,1,1,two,1
112,58,List1,Exp,,BoyThreeAmyPlates,,2,8,num,,AOI1,AOI7,three,,31,44-22,Amy's,,Click on the boy that has three of Amy's plates,1,3_plates,girl,2_forks,3_spoons,2_knives,1_spoon,1_plate,boy,boy,girl,,,,,,,,boy with three plates,8153,kitchenwares,big,,1,7,,boy,,3_plates,11,,boy,1,1,three,1
113,58,List1,Exp,,BoyThreeAmyKnives,,1,7,num,,AOI2,AOI8,three,,14,33-33,Amy's,,Click on the boy that has three of Amy's knives,1,2_spoons,girl,3_knives,2_plates,3_forks,1_spoon,1_plate,boy,boy,girl,,,,,,,,boy with three knives,3680,kitchenwares,big,,2,8,,boy,,3_knives,12,,boy,1,1,three,1
114,58,List1,Exp,,BoySomeSusanPears,,2,8,some,,AOI1,AOI7,some,,1,33-33,Susan's,,Click on the boy that has some of Susan's pears,1,2_pears,girl,3_bananas,2_apples,3_oranges,1_apple,1_pear,boy,boy,girl,,,,,,,,boy with two pears,3688,fruit,small,,1,7,,boy,,2_pears,13,,boy,1,1,two,1
115,58,List1,Exp,,GirlAllMichaelErasers,,4,10,all,,AOI3,AOI9,all,,26,44-22,Michael's,,Click on the girl that has all of Michael's erasers,1,3_pencils,girl,2_scissors,2_erasers,3_rulers,1_pencil,1_ruler,boy,boy,girl,,,,,,,,girl with two erasers,3782,stationeries,small,,3,9,,girl,,2_erasers,14,,girl,1,1,two,1
116,58,List1,Exp,,GirlThreeSusanPears,,3,9,num,,AOI4,AOI10,three,,6,33-33,Susan's,,Click on the girl that has three of Susan's pears,1,2_oranges,girl,3_bananas,2_apples,3_pears,1_apple,1_orange,boy,boy,girl,,,,,,,,girl with three pairs,10072,fruit,big,,4,10,,girl,,3_pears,15,,girl,1,1,three,1
117,58,List1,Filler,,GirlFourSusanOranges,,4,10,four,,AOI3,AOI9,four,,45,44-22,Susan's,,Click on the girl that has four of Susan's oranges,1,2_pears,girl,3_apples,4_oranges,1_banana,1_banana,1_apple,boy,boy,girl,,,,,,,,girl with four oranges,9816,fruit,big,,3,9,,girl,,4_oranges,16,,girl,1,1,four,1
118,58,List1,Exp,,GirlSomeAmyPlates,,3,9,some,,AOI4,AOI10,some,,16,33-33,Amy's,,Click on the girl that has some of Amy's plates,1,2_forks,girl,3_knives,3_spoons,2_plates,1_fork,1_plate,boy,boy,girl,,,,,,,,girl with two plates.,6110,kitchenwares,small,,4,10,,girl,,2_plates,17,,girl,1,1,two,1
119,58,List1,Filler,,BoyOneAmyPlates,,2,8,one,,AOI1,AOI7,one,,38,33-33,Amy's,,Click on the boy that has one of Amy's plates,1,1_plate,girl,3_knives,3_forks,3_spoons,2_plates,0,boy,boy,girl,,,,,,,,boy with one plate,4290,kitchenwares,small,,1,7,,boy,,1_plate,18,,boy,1,1,one,1
120,58,List1,Filler,,BoyOneAmySpoons,,1,7,one,,AOI2,AOI8,one,,39,33-33,Amy's,,Click on the boy that has one of Amy's spoons,1,3_forks,girl,1_spoon,3_plates,3_knives,2_spoons,0,boy,boy,girl,,,,,,,,boy with one spoon,3652,kitchenwares,small,,2,8,,boy,,1_spoon,19,,boy,1,1,one,1
121,58,List1,Exp,,BoyAllAmyKnives,,2,8,all,,AOI1,AOI7,all,,18,33-33,Amy's,,Click on the boy that has all of Amy's knives,1,3_knives,girl,2_plates,3_spoons,2_forks,1_plate,1_fork,boy,boy,girl,,,,,,,,boy with three knives,3121,kitchenwares,big,,1,7,,boy,,3_knives,20,,boy,1,1,three,1
122,58,List1,Exp,,BoySomeMichaelPencils,,2,8,some,,AOI1,AOI7,some,,29,44-22,Michael's,,Click on the boy that has some of Michael's pencils,1,3_pencils,girl,2_erasers,3_scissors,2_rulers,1_pencil,1_scissor,boy,boy,girl,,,,,,,,boy with three pencils,3406,stationeries,big,,1,7,,boy,,3_pencils,21,,boy,1,1,three,1
123,58,List1,Exp,,BoySomeMichaelErasers,,2,8,some,,AOI1,AOI7,some,,11,33-33,Michael's,,Click on the boy that has some of Michael's erasers,1,2_erasers,girl,3_pencils,2_rulers,3_scissors,1_ruler,1_eraser,boy,boy,girl,,,,,,,,boy with two erasers,7215,stationeries,small,,1,7,,boy,,2_erasers,22,,boy,1,1,two,1
124,58,List1,Exp,,GirlAllAmySpoons,,4,10,all,,AOI3,AOI9,all,,36,44-22,Amy's,,Click on the girl that has all of Amy's spoons,1,3_plates,girl,2_knives,2_spoons,3_forks,1_plate,1_fork,boy,boy,girl,,,,,,,,girl blushing with two spoons,5038,kitchenwares,small,,3,9,,girl,,2_spoons,23,,girl,1,1,two,1
125,58,List1,Filler,,GirlFourAmyPlates,,3,9,four,,AOI4,AOI10,four,,47,44-22,Amy's,,Click on the girl that has four of Amy's plates,1,1_knife,girl,3_forks,2_spoons,4_plates,1_knife,1_fork,boy,boy,girl,,,,,,,,girl blushing with four plates,6633,kitchenwares,big,,4,10,,girl,,4_plates,24,,girl,1,1,four,1
126,58,List1,Exp,,GirlAllMichaelRulers,,3,9,all,,AOI4,AOI10,all,,8,33-33,Michael's,,Click on the girl that has all of Michael's rulers,1,2_scissors,girl,3_pencils,2_erasers,3_rulers,1_eraser,1_scissor,boy,boy,girl,,,,,,,,girl blushing with three rulers,3792,stationeries,big,,4,10,,girl,,3_rulers,25,,girl,1,1,three,1
127,58,List1,Filler,,GirlFourMichaelPencils,,3,9,four,,AOI4,AOI10,four,,48,44-22,Michael's,,Click on the girl that has four of Michael's pencils,1,1_ruler,girl,2_erasers,3_scissors,4_pencils,1_ruler,1_scissor,boy,boy,girl,,,,,,,,girl blushing with four pencils,3886,stationeries,big,,4,10,,girl,,4_pencils,26,,girl,1,1,four,1
128,58,List1,Exp,,GirlTwoSusanBananas,,3,9,num,,AOI4,AOI10,two,,5,33-33,Susan's,,Click on the girl that has two of Susan's bananas,1,2_pears,girl,3_apples,3_oranges,2_bananas,1_banana,1_pear,boy,boy,girl,,,,,,,,girl blushing with two banans,3154,fruit,small,,4,10,,girl,,2_bananas,27,,girl,1,1,two,1
129,58,List1,Exp,,BoyTwoMichaelPencils,,1,7,num,,AOI2,AOI8,two,,28,44-22,Michael's,,Click on the boy that has two of Michael's pencils,1,3_scissors,girl,2_pencils,2_erasers,3_rulers,1_ruler,1_scissor,boy,boy,girl,,,,,,,,boy blushing with two pencils,4726,stationeries,small,,2,8,,boy,,2_pencils,28,,boy,1,1,two,1
130,58,List1,Exp,,GirlThreeSusanOranges,,4,10,num,,AOI3,AOI9,three,,23,44-22,Susan's,,Click on the girl that has three of Susan's oranges,1,3_apples,girl,2_pears,3_oranges,2_bananas,1_apple,1_orange,boy,boy,girl,,,,,,,,girl blushing with three oranges,6028,fruit,big,,3,9,,girl,,3_oranges,29,,girl,1,1,three,1
131,58,List1,Exp,,BoyTwoSusanApples,,2,8,num,,AOI1,AOI7,two,,24,44-22,Susan's,,Click on the boy that has two of Susan's apples,1,2_apples,girl,3_pears,3_bananas,2_oranges,1_banana,1_pear,boy,boy,girl,,,,,,,,boy with two apples,4087,fruit,small,,1,7,,boy,,2_apples,30,,boy,1,1,two,1
132,58,List1,Filler,,BoyOneMichaelRulers,,1,7,one,,AOI2,AOI8,one,,40,33-33,Michael's,,Click on the boy that has one of Michael's rulers,1,3_erasers,girl,1_ruler,3_pencils,3_scissors,2_scissors,0,boy,boy,girl,,,,,,,,boy with a ruler,3003,stationeries,small,,2,8,,boy,,1_ruler,31,,boy,1,1,a,1
133,58,List1,Filler,,GirlFourAmyKnives,,4,10,four,,AOI3,AOI9,four,,46,44-22,Amy's,,Click on the girl that has four of Amy's knives,1,1_spoon,girl,3_plates,4_knives,2_forks,1_spoon,1_plate,boy,boy,girl,,,,,,,,girl blushing with four knives,3920,kitchenwares,big,,3,9,,girl,,4_knives,32,,girl,1,1,four,1
134,58,List1,Exp,,GirlAllAmyPlates,,3,9,all,,AOI4,AOI10,all,,35,44-22,Amy's,,Click on the girl that has all of Amy's plates,1,3_spoons,girl,2_forks,3_knives,2_plates,1_spoon,1_knife,boy,boy,girl,,,,,,,,girl blushing with two plates,3527,kitchenwares,small,,4,10,,girl,,2_plates,33,,girl,1,1,two,1
135,58,List1,Exp,,GirlAllSusanBananas,,4,10,all,,AOI3,AOI9,all,,4,33-33,Susan's,,Click on the girl that has all of Susan's bananas,1,2_pears,girl,3_apples,3_bananas,2_oranges,1_orange,1_pear,boy,boy,girl,,,,,,,,girl blushing with three banans,3713,fruit,big,,3,9,,girl,,3_bananas,34,,girl,1,1,three,1
136,58,List1,Exp,,BoyAllSusanApples,,2,8,all,,AOI1,AOI7,all,,22,44-22,Susan's,,Click on the boy that has all of Susan's apples,1,2_apples,girl,3_pears,3_oranges,2_bananas,1_orange,1_pear,boy,boy,girl,,,,,,,,boy blushing with two apples,3876,fruit,small,,1,7,,boy,,2_apples,35,,boy,1,1,two,1
137,58,List1,Filler,,BoyFourMichaelScissors,,2,8,four,,AOI1,AOI7,four,,43,44-22,Michael's,,Click on the boy that has four of Michael's scissors,1,4_scissors,girl,1_pencil,2_rulers,3_erasers,1_pencil,1_eraser,boy,boy,girl,,,,,,,,boy with four scissors,3996,stationeries,big,,1,7,,boy,,4_scissors,36,,boy,1,1,four,1
138,58,List1,Exp,,BoyTwoAmySpoons,,2,8,num,,AOI1,AOI7,two,,32,44-22,Amy's,,Click on the boy that has two of Amy's spoons,1,2_spoons,girl,3_knives,3_forks,2_plates,1_fork,1_knife,boy,boy,girl,,,,,,,,boy with two spoons,3726,kitchenwares,small,,1,7,,boy,,2_spoons,37,,boy,1,1,two,1
139,58,List1,Filler,,GirlOneSusanPears,,3,9,one,,AOI4,AOI10,one,,42,33-33,Susan's,,Click on the girl that has one of Susan's pears,1,3_bananas,girl,3_oranges,3_apples,1_pear,2_pears,0,boy,boy,girl,,,,,,,,girl blushing with a pear,5283,fruit,small,,4,10,,girl,,1_pear,38,,girl,1,1,a,1
140,58,List1,Exp,,GirlTwoAmyForks,,3,9,num,,AOI4,AOI10,two,,13,33-33,Amy's,,Click on the girl that has two of Amy's forks,1,2_knives,girl,3_spoons,3_plates,2_forks,1_fork,1_knife,boy,boy,girl,,,,,,,,girl blushing with two forks,3504,kitchenwares,small,,4,10,,girl,,2_forks,39,,girl,1,1,two,1
141,58,List1,Exp,,GirlSomeSusanBananas,,3,9,some,,AOI4,AOI10,some,,19,44-22,Susan's,,Click on the girl that has some of Susan's bananas,1,3_oranges,girl,2_apples,2_pears,3_bananas,1_banana,1_orange,boy,boy,girl,,,,,,,,girl blushing with three banans,3319,fruit,big,,4,10,,girl,,3_bananas,40,,girl,1,1,three,1
142,58,List1,Exp,,BoySomeMichaelScissors,,1,7,some,,AOI2,AOI8,some,,12,33-33,Michael's,,Click on the boy that has some of Michael's scissors,1,3_rulers,girl,2_scissors,2_pencils,3_erasers,1_pencil,1_scissor,boy,boy,girl,,,,,,,,boy with two scissors,3386,stationeries,small,,2,8,,boy,,2_scissors,41,,boy,1,1,two,1
143,58,List1,Exp,,GirlSomeSusanApples,,4,10,some,,AOI3,AOI9,some,,20,44-22,Susan's,,Click on the girl that has some of Susan's apples,1,3_pears,girl,2_bananas,3_apples,2_oranges,1_apple,1_pear,boy,boy,girl,,,,,,,,girl blushing with three apples,3421,fruit,big,,3,9,,girl,,3_apples,42,,girl,1,1,three,1
144,58,List1,Exp,,GirlThreeMichaelScissors,,4,10,num,,AOI3,AOI9,three,,10,33-33,Michael's,,Click on the girl that has three of Michael's scissors,1,3_rulers,girl,2_erasers,3_scissors,2_pencils,1_pencil,1_eraser,boy,boy,girl,,,,,,,,girl blushing with three scissors,3478,stationeries,big,,3,9,,girl,,3_scissors,43,,girl,1,1,three,1
145,58,List1,Exp,,BoySomeSusanOranges,,1,7,some,,AOI2,AOI8,some,,2,33-33,Susan's,,Click on the boy that has some of Susan's oranges,1,3_apples,girl,2_oranges,2_bananas,3_pears,1_banana,1_orange,boy,boy,girl,,,,,,,,boy blushing with two oranges.,6347,fruit,small,,2,8,,boy,,2_oranges,44,,boy,1,1,two,1
146,58,List1,Filler,,BoyOneSusanApples,,2,8,one,,AOI1,AOI7,one,,37,33-33,Susan's,,Click on the boy that has one of Susan's apples,1,1_apple,girl,3_pears,3_bananas,3_oranges,2_apples,0,boy,boy,girl,,,,,,,,boy with one apple,3770,fruit,small,,1,7,,boy,,1_apple,45,,boy,1,1,one,1
147,58,List1,Exp,,BoyThreeMichaelErasers,,1,7,num,,AOI2,AOI8,three,,27,44-22,Michael's,,Click on the boy that has three of Michael's erasers,1,2_rulers,girl,3_erasers,2_scissors,3_pencils,1_pencil,1_eraser,boy,boy,girl,,,,,,,,boy with three erasers,3827,stationeries,big,,2,8,,boy,,3_erasers,46,,boy,1,1,three,1
148,58,List1,Exp,,GirlSomeMichaelRulers,,3,9,some,,AOI4,AOI10,some,,30,44-22,Michael's,,Click on the girl that has some of Michael's rulers,1,3_erasers,girl,2_pencils,2_scissors,3_rulers,1_ruler,1_eraser,boy,boy,girl,,,,,,,,girl blushing with three rulers,4917,stationeries,big,,4,10,,girl,,3_rulers,47,,girl,1,1,three,1
149,58,List1,Filler,,GirlOneMichaelErasers,,4,10,one,,AOI3,AOI9,one,,41,33-33,Michael's,,Click on the girl that has one of Michael's erasers,1,3_pencils,girl,3_scissors,1_eraser,3_rulers,2_erasers,0,boy,boy,girl,,,,,,,,girl blushing with an eraser,3624,stationeries,small,,3,9,,girl,,1_eraser,48,,girl,1,1,a,1
150,41,List1,Prac,kitchware_Amy_Monday,,Residue_kitchen,4,,,num,AOI3,AOI9,,three,5,44-22,Amy,Click on the girl that has three of Amy's knives,,,2_spoons,girl,3_forks,3_knives,2_plates,1_fork,1_knife,boy,boy,girl,knives,D4_forks,D2_spoons,D4_knives,production practice,1,GirlThreeAmyknives,girl and three knives,,kitchenwares,,big,3,,girl,,3_knives,,,,girl,0,0,three,0
151,41,List1,Prac,kitchware_Amy_Tuesday,,Slience,2,,,some,AOI4,AOI10,,some,6,33-33,Amy,Click on the girl that has some of Amy's forks,,,3_spoons,girl,2_knives,3_plates,2_forks,1_fork,1_knife,boy,boy,girl,forks,D3_forks,D3_spoons,D3_knives,production practice,2,GirlSomeAmyforks,girl and 2 forks,,kitchenwares,,big,4,,girl,,2_forks,,,,girl,0,0,two,0
152,41,List1,Exp,,BoyAllSusanOranges,,1,7,all,,AOI2,AOI8,all,,21,44-22,Susan's,,Click on the boy that has all of Susan's oranges,1,3_bananas,girl,2_oranges,3_apples,2_pears,1_apple,1_banana,boy,boy,girl,,,,,,,,boy and 2 oranges,16049,fruit,small,,2,8,,boy,,2_oranges,1,,boy,1,1,two,1
153,41,List1,Exp,,GirlSomeAmyPlates,,3,9,some,,AOI4,AOI10,some,,16,33-33,Amy's,,Click on the girl that has some of Amy's plates,1,2_forks,girl,3_knives,3_spoons,2_plates,1_fork,1_plate,boy,boy,girl,,,,,,,,girl and 2 plates,11707,kitchenwares,small,,4,10,,girl,,2_plates,2,,girl,1,1,two,1
154,41,List1,Exp,,GirlAllAmySpoons,,4,10,all,,AOI3,AOI9,all,,36,44-22,Amy's,,Click on the girl that has all of Amy's spoons,1,3_plates,girl,2_knives,2_spoons,3_forks,1_plate,1_fork,boy,boy,girl,,,,,,,,girl and three forks,6819,kitchenwares,small,,3,9,,girl,,2_spoons,3,,girl,1,0,three,0
155,41,List1,Exp,,BoySomeAmySpoons,,1,7,some,,AOI2,AOI8,some,,33,44-22,Amy's,,Click on the boy that has some of Amy's spoons,1,2_plates,girl,3_spoons,2_forks,3_knives,1_spoon,1_knife,boy,boy,girl,,,,,,,,boy and three spoons,6318,kitchenwares,big,,2,8,,boy,,3_spoons,4,,boy,1,1,three,1
156,41,List1,Filler,,BoyFourMichaelScissors,,2,8,four,,AOI1,AOI7,four,,43,44-22,Michael's,,Click on the boy that has four of Michael's scissors,1,4_scissors,girl,1_pencil,2_rulers,3_erasers,1_pencil,1_eraser,boy,boy,girl,,,,,,,,boy and 4 scissors,8809,stationeries,big,,1,7,,boy,,4_scissors,5,,boy,1,1,four,1
157,41,List1,Exp,,GirlThreeSusanPears,,3,9,num,,AOI4,AOI10,three,,6,33-33,Susan's,,Click on the girl that has three of Susan's pears,1,2_oranges,girl,3_bananas,2_apples,3_pears,1_apple,1_orange,boy,boy,girl,,,,,,,,girl and 3 pears,7001,fruit,big,,4,10,,girl,,3_pears,6,,girl,1,1,three,1
158,41,List1,Exp,,GirlTwoAmyForks,,3,9,num,,AOI4,AOI10,two,,13,33-33,Amy's,,Click on the girl that has two of Amy's forks,1,2_knives,girl,3_spoons,3_plates,2_forks,1_fork,1_knife,boy,boy,girl,,,,,,,,girl and 2 forks,5403,kitchenwares,small,,4,10,,girl,,2_forks,7,,girl,1,1,two,1
159,41,List1,Exp,,GirlAllSusanBananas,,4,10,all,,AOI3,AOI9,all,,4,33-33,Susan's,,Click on the girl that has all of Susan's bananas,1,2_pears,girl,3_apples,3_bananas,2_oranges,1_orange,1_pear,boy,boy,girl,,,,,,,,girl and 3 bananas,7053,fruit,big,,3,9,,girl,,3_bananas,8,,girl,1,1,three,1
160,41,List1,Exp,,BoyThreeAmyKnives,,1,7,num,,AOI2,AOI8,three,,14,33-33,Amy's,,Click on the boy that has three of Amy's knives,1,2_spoons,girl,3_knives,2_plates,3_forks,1_spoon,1_plate,boy,boy,girl,,,,,,,,boy and 3 knives,5344,kitchenwares,big,,2,8,,boy,,3_knives,9,,boy,1,1,three,1
161,41,List1,Exp,,BoySomeMichaelScissors,,1,7,some,,AOI2,AOI8,some,,12,33-33,Michael's,,Click on the boy that has some of Michael's scissors,1,3_rulers,girl,2_scissors,2_pencils,3_erasers,1_pencil,1_scissor,boy,boy,girl,,,,,,,,boy and 2 scissors,5825,stationeries,small,,2,8,,boy,,2_scissors,10,,boy,1,1,two,1
162,41,List1,Filler,,GirlOneMichaelErasers,,4,10,one,,AOI3,AOI9,one,,41,33-33,Michael's,,Click on the girl that has one of Michael's erasers,1,3_pencils,girl,3_scissors,1_eraser,3_rulers,2_erasers,0,boy,boy,girl,,,,,,,,girl and eraser,4885,stationeries,small,,3,9,,girl,,1_eraser,11,,girl,1,1,noDet,1
163,41,List1,Exp,,BoyTwoMichaelPencils,,1,7,num,,AOI2,AOI8,two,,28,44-22,Michael's,,Click on the boy that has two of Michael's pencils,1,3_scissors,girl,2_pencils,2_erasers,3_rulers,1_ruler,1_scissor,boy,boy,girl,,,,,,,,boy and 2 pencils,6412,stationeries,small,,2,8,,boy,,2_pencils,12,,boy,1,1,two,1
164,41,List1,Exp,,GirlTwoMichaelRulers,,4,10,num,,AOI3,AOI9,two,,9,33-33,Michael's,,Click on the girl that has two of Michael's rulers,1,3_pencils,girl,2_scissors,2_rulers,3_erasers,1_ruler,1_scissor,boy,boy,girl,,,,,,,,girl and 2 rulers,8602,stationeries,small,,3,9,,girl,,2_rulers,13,,girl,1,1,two,1
165,41,List1,Exp,,GirlSomeAmyForks,,4,10,some,,AOI3,AOI9,some,,34,44-22,Amy's,,Click on the girl that has some of Amy's forks,1,2_spoons,girl,3_plates,3_forks,2_knives,1_fork,1_plate,boy,boy,girl,,,,,,,,girl and 3 forks,5143,kitchenwares,big,,3,9,,girl,,3_forks,14,,girl,1,1,three,1
166,41,List1,Exp,,BoyThreeMichaelErasers,,1,7,num,,AOI2,AOI8,three,,27,44-22,Michael's,,Click on the boy that has three of Michael's erasers,1,2_rulers,girl,3_erasers,2_scissors,3_pencils,1_pencil,1_eraser,boy,boy,girl,,,,,,,,boy and 3 erasers,6248,stationeries,big,,2,8,,boy,,3_erasers,15,,boy,1,1,three,1
167,41,List1,Exp,,BoyTwoAmySpoons,,2,8,num,,AOI1,AOI7,two,,32,44-22,Amy's,,Click on the boy that has two of Amy's spoons,1,2_spoons,girl,3_knives,3_forks,2_plates,1_fork,1_knife,boy,boy,girl,,,,,,,,boy and 2 spoons,5862,kitchenwares,small,,1,7,,boy,,2_spoons,16,,boy,1,1,two,1
168,41,List1,Exp,,BoyAllAmyForks,,1,7,all,,AOI2,AOI8,all,,17,33-33,Amy's,,Click on the boy that has all of Amy's forks,1,2_spoons,girl,3_forks,2_knives,3_plates,1_spoon,1_knife,boy,boy,girl,,,,,,,,boy and 3 forks,4204,kitchenwares,big,,2,8,,boy,,3_forks,17,,boy,1,1,three,1
169,41,List1,Exp,,GirlAllMichaelRulers,,3,9,all,,AOI4,AOI10,all,,8,33-33,Michael's,,Click on the girl that has all of Michael's rulers,1,2_scissors,girl,3_pencils,2_erasers,3_rulers,1_eraser,1_scissor,boy,boy,girl,,,,,,,,girl and 3 rulers,4740,stationeries,big,,4,10,,girl,,3_rulers,18,,girl,1,1,three,1
170,41,List1,Exp,,GirlSomeMichaelRulers,,3,9,some,,AOI4,AOI10,some,,30,44-22,Michael's,,Click on the girl that has some of Michael's rulers,1,3_erasers,girl,2_pencils,2_scissors,3_rulers,1_ruler,1_eraser,boy,boy,girl,,,,,,,,girl and 3 rulers,6439,stationeries,big,,4,10,,girl,,3_rulers,19,,girl,1,1,three,1
171,41,List1,Exp,,BoySomeSusanPears,,2,8,some,,AOI1,AOI7,some,,1,33-33,Susan's,,Click on the boy that has some of Susan's pears,1,2_pears,girl,3_bananas,2_apples,3_oranges,1_apple,1_pear,boy,boy,girl,,,,,,,,boy and 2 pears,5645,fruit,small,,1,7,,boy,,2_pears,20,,boy,1,1,two,1
172,41,List1,Filler,,GirlFourAmyKnives,,4,10,four,,AOI3,AOI9,four,,46,44-22,Amy's,,Click on the girl that has four of Amy's knives,1,1_spoon,girl,3_plates,4_knives,2_forks,1_spoon,1_plate,boy,boy,girl,,,,,,,,girl and 4 knives,6532,kitchenwares,big,,3,9,,girl,,4_knives,21,,girl,1,1,four,1
173,41,List1,Exp,,BoyAllAmyKnives,,2,8,all,,AOI1,AOI7,all,,18,33-33,Amy's,,Click on the boy that has all of Amy's knives,1,3_knives,girl,2_plates,3_spoons,2_forks,1_plate,1_fork,boy,boy,girl,,,,,,,,boy and 3 knives,5389,kitchenwares,big,,1,7,,boy,,3_knives,22,,boy,1,1,three,1
174,41,List1,Exp,,GirlThreeSusanOranges,,4,10,num,,AOI3,AOI9,three,,23,44-22,Susan's,,Click on the girl that has three of Susan's oranges,1,3_apples,girl,2_pears,3_oranges,2_bananas,1_apple,1_orange,boy,boy,girl,,,,,,,,girl and 3 oranges,5435,fruit,big,,3,9,,girl,,3_oranges,23,,girl,1,1,three,1
175,41,List1,Filler,,BoyOneAmySpoons,,1,7,one,,AOI2,AOI8,one,,39,33-33,Amy's,,Click on the boy that has one of Amy's spoons,1,3_forks,girl,1_spoon,3_plates,3_knives,2_spoons,0,boy,boy,girl,,,,,,,,boy and spoon,4781,kitchenwares,small,,2,8,,boy,,1_spoon,24,,boy,1,1,noDet,1
176,41,List1,Exp,,GirlThreeMichaelScissors,,4,10,num,,AOI3,AOI9,three,,10,33-33,Michael's,,Click on the girl that has three of Michael's scissors,1,3_rulers,girl,2_erasers,3_scissors,2_pencils,1_pencil,1_eraser,boy,boy,girl,,,,,,,,girl and 3 scissors,5035,stationeries,big,,3,9,,girl,,3_scissors,25,,girl,1,1,three,1
177,41,List1,Filler,,GirlFourMichaelPencils,,3,9,four,,AOI4,AOI10,four,,48,44-22,Michael's,,Click on the girl that has four of Michael's pencils,1,1_ruler,girl,2_erasers,3_scissors,4_pencils,1_ruler,1_scissor,boy,boy,girl,,,,,,,,girl and 4 pencils,6038,stationeries,big,,4,10,,girl,,4_pencils,26,,girl,1,1,four,1
178,41,List1,Exp,,BoySomeMichaelErasers,,2,8,some,,AOI1,AOI7,some,,11,33-33,Michael's,,Click on the boy that has some of Michael's erasers,1,2_erasers,girl,3_pencils,2_rulers,3_scissors,1_ruler,1_eraser,boy,boy,girl,,,,,,,,girl and 2 erasers,6773,stationeries,small,,1,7,,boy,,2_erasers,27,,girl,0,1,two,1
179,41,List1,Filler,,BoyOneMichaelRulers,,1,7,one,,AOI2,AOI8,one,,40,33-33,Michael's,,Click on the boy that has one of Michael's rulers,1,3_erasers,girl,1_ruler,3_pencils,3_scissors,2_scissors,0,boy,boy,girl,,,,,,,,boy and ruler,3798,stationeries,small,,2,8,,boy,,1_ruler,28,,boy,1,1,noDet,1
180,41,List1,Filler,,BoyOneAmyPlates,,2,8,one,,AOI1,AOI7,one,,38,33-33,Amy's,,Click on the boy that has one of Amy's plates,1,1_plate,girl,3_knives,3_forks,3_spoons,2_plates,0,boy,boy,girl,,,,,,,,boy and plate,3885,kitchenwares,small,,1,7,,boy,,1_plate,29,,boy,1,1,noDet,1
181,41,List1,Filler,,BoyFourSusanBananas,,1,7,four,,AOI2,AOI8,four,,44,44-22,Susan's,,Click on the boy that has four of Susan's bananas,1,1_orange,girl,4_bananas,3_pears,2_apples,1_orange,1_pear,boy,boy,girl,,,,,,,,boy and 4 bananas,6425,fruit,big,,2,8,,boy,,4_bananas,30,,boy,1,1,four,1
182,41,List1,Exp,,GirlSomeSusanBananas,,3,9,some,,AOI4,AOI10,some,,19,44-22,Susan's,,Click on the girl that has some of Susan's bananas,1,3_oranges,girl,2_apples,2_pears,3_bananas,1_banana,1_orange,boy,boy,girl,,,,,,,,girl and 3 bananas,5917,fruit,big,,4,10,,girl,,3_bananas,31,,girl,1,1,three,1
183,41,List1,Exp,,BoyAllMichaelScissors,,2,8,all,,AOI1,AOI7,all,,7,33-33,Michael's,,Click on the boy that has all of Michael's scissors,1,3_scissors,girl,2_pencils,3_erasers,2_rulers,1_pencil,1_ruler,boy,boy,girl,,,,,,,,boy and 3 scissors,4737,stationeries,big,,1,7,,boy,,3_scissors,32,,boy,1,1,three,1
184,41,List1,Exp,,GirlSomeAmyKnives,,4,10,some,,AOI3,AOI9,some,,15,33-33,Amy's,,Click on the girl that has some of Amy's knives,1,2_spoons,girl,3_plates,2_knives,3_forks,1_spoon,1_knife,boy,boy,girl,,,,,,,,girl and 2 knives,5850,kitchenwares,small,,3,9,,girl,,2_knives,33,,girl,1,1,two,1
185,41,List1,Filler,,GirlOneSusanPears,,3,9,one,,AOI4,AOI10,one,,42,33-33,Susan's,,Click on the girl that has one of Susan's pears,1,3_bananas,girl,3_oranges,3_apples,1_pear,2_pears,0,boy,boy,girl,,,,,,,,girl and pear,4577,fruit,small,,4,10,,girl,,1_pear,34,,girl,1,1,noDet,1
186,41,List1,Exp,,BoyTwoSusanApples,,2,8,num,,AOI1,AOI7,two,,24,44-22,Susan's,,Click on the boy that has two of Susan's apples,1,2_apples,girl,3_pears,3_bananas,2_oranges,1_banana,1_pear,boy,boy,girl,,,,,,,,boy and 2 apples,4501,fruit,small,,1,7,,boy,,2_apples,35,,boy,1,1,two,1
187,41,List1,Exp,,BoySomeSusanOranges,,1,7,some,,AOI2,AOI8,some,,2,33-33,Susan's,,Click on the boy that has some of Susan's oranges,1,3_apples,girl,2_oranges,2_bananas,3_pears,1_banana,1_orange,boy,boy,girl,,,,,,,,boy and 2 oranges,5389,fruit,small,,2,8,,boy,,2_oranges,36,,boy,1,1,two,1
188,41,List1,Exp,,GirlAllAmyPlates,,3,9,all,,AOI4,AOI10,all,,35,44-22,Amy's,,Click on the girl that has all of Amy's plates,1,3_spoons,girl,2_forks,3_knives,2_plates,1_spoon,1_knife,boy,boy,girl,,,,,,,,girl and 2 plates,6513,kitchenwares,small,,4,10,,girl,,2_plates,37,,girl,1,1,two,1
189,41,List1,Filler,,BoyOneSusanApples,,2,8,one,,AOI1,AOI7,one,,37,33-33,Susan's,,Click on the boy that has one of Susan's apples,1,1_apple,girl,3_pears,3_bananas,3_oranges,2_apples,0,boy,boy,girl,,,,,,,,boy and apple,3306,fruit,small,,1,7,,boy,,1_apple,38,,boy,1,1,noDet,1
190,41,List1,Exp,,BoyThreeAmyPlates,,2,8,num,,AOI1,AOI7,three,,31,44-22,Amy's,,Click on the boy that has three of Amy's plates,1,3_plates,girl,2_forks,3_spoons,2_knives,1_spoon,1_plate,boy,boy,girl,,,,,,,,boy and 3 plates,4634,kitchenwares,big,,1,7,,boy,,3_plates,39,,boy,1,1,three,1
191,41,List1,Filler,,GirlFourAmyPlates,,3,9,four,,AOI4,AOI10,four,,47,44-22,Amy's,,Click on the girl that has four of Amy's plates,1,1_knife,girl,3_forks,2_spoons,4_plates,1_knife,1_fork,boy,boy,girl,,,,,,,,girl and 4 plates,4826,kitchenwares,big,,4,10,,girl,,4_plates,40,,girl,1,1,four,1
192,41,List1,Exp,,GirlAllMichaelPencils,,3,9,all,,AOI4,AOI10,all,,25,44-22,Michael's,,Click on the girl that has all of Michael's pencils,1,3_erasers,girl,2_rulers,3_scissors,2_pencils,1_eraser,1_scissor,boy,boy,girl,,,,,,,,girl and 2 pencils,7788,stationeries,small,,4,10,,girl,,2_pencils,41,,girl,1,1,two,1
193,41,List1,Exp,,GirlSomeSusanApples,,4,10,some,,AOI3,AOI9,some,,20,44-22,Susan's,,Click on the girl that has some of Susan's apples,1,3_pears,girl,2_bananas,3_apples,2_oranges,1_apple,1_pear,boy,boy,girl,,,,,,,,girl and 3 apples,6536,fruit,big,,3,9,,girl,,3_apples,42,,girl,1,1,three,1
194,41,List1,Exp,,GirlTwoSusanBananas,,3,9,num,,AOI4,AOI10,two,,5,33-33,Susan's,,Click on the girl that has two of Susan's bananas,1,2_pears,girl,3_apples,3_oranges,2_bananas,1_banana,1_pear,boy,boy,girl,,,,,,,,girl and 2 bananas,6554,fruit,small,,4,10,,girl,,2_bananas,43,,girl,1,1,two,1
195,41,List1,Exp,,BoyAllSusanPears,,1,7,all,,AOI2,AOI8,all,,3,33-33,Susan's,,Click on the boy that has all of Susan's pears,1,2_apples,girl,3_pears,2_bananas,3_oranges,1_apple,1_banana,boy,boy,girl,,,,,,,,boy and 3 pears,4889,fruit,big,,2,8,,boy,,3_pears,44,,boy,1,1,three,1
196,41,List1,Filler,,GirlFourSusanOranges,,4,10,four,,AOI3,AOI9,four,,45,44-22,Susan's,,Click on the girl that has four of Susan's oranges,1,2_pears,girl,3_apples,4_oranges,1_banana,1_banana,1_apple,boy,boy,girl,,,,,,,,girl and 4 oranges,5044,fruit,big,,3,9,,girl,,4_oranges,45,,girl,1,1,four,1
197,41,List1,Exp,,GirlAllMichaelErasers,,4,10,all,,AOI3,AOI9,all,,26,44-22,Michael's,,Click on the girl that has all of Michael's erasers,1,3_pencils,girl,2_scissors,2_erasers,3_rulers,1_pencil,1_ruler,boy,boy,girl,,,,,,,,girl and 2 erasers,5806,stationeries,small,,3,9,,girl,,2_erasers,46,,girl,1,1,two,1
198,41,List1,Exp,,BoyAllSusanApples,,2,8,all,,AOI1,AOI7,all,,22,44-22,Susan's,,Click on the boy that has all of Susan's apples,1,2_apples,girl,3_pears,3_oranges,2_bananas,1_orange,1_pear,boy,boy,girl,,,,,,,,boy and 2 apples,4581,fruit,small,,1,7,,boy,,2_apples,47,,boy,1,1,two,1
199,41,List1,Exp,,BoySomeMichaelPencils,,2,8,some,,AOI1,AOI7,some,,29,44-22,Michael's,,Click on the boy that has some of Michael's pencils,1,3_pencils,girl,2_erasers,3_scissors,2_rulers,1_pencil,1_scissor,boy,boy,girl,,,,,,,,boy and 3 pencils,5306,stationeries,big,,1,7,,boy,,3_pencils,48,,boy,1,1,three,1
200,35,List1,Prac,kitchware_Amy_Monday,,Residue_kitchen,4,,,num,AOI3,AOI9,,three,5,44-22,Amy,Click on the girl that has three of Amy's knives,,,2_spoons,girl,3_forks,3_knives,2_plates,1_fork,1_knife,boy,boy,girl,knives,D4_forks,D2_spoons,D4_knives,production practice,1,GirlThreeAmyknives,girl with knives,,kitchenwares,,big,3,,girl,,3_knives,,,,girl,0,0,noDet,1
201,35,List1,Prac,kitchware_Amy_Tuesday,,Slience,2,,,some,AOI4,AOI10,,some,6,33-33,Amy,Click on the girl that has some of Amy's forks,,,3_spoons,girl,2_knives,3_plates,2_forks,1_fork,1_knife,boy,boy,girl,forks,D3_forks,D3_spoons,D3_knives,production practice,2,GirlSomeAmyforks,girl with forks,,kitchenwares,,big,4,,girl,,2_forks,,,,girl,0,0,noDet,1
202,35,List1,Exp,,GirlThreeSusanPears,,3,9,num,,AOI4,AOI10,three,,6,33-33,Susan's,,Click on the girl that has three of Susan's pears,1,2_oranges,girl,3_bananas,2_apples,3_pears,1_apple,1_orange,boy,boy,girl,,,,,,,,girl with pears,8573,fruit,big,,4,10,,girl,,3_pears,1,,girl,1,1,noDet,1
203,35,List1,Filler,,BoyFourMichaelScissors,,2,8,four,,AOI1,AOI7,four,,43,44-22,Michael's,,Click on the boy that has four of Michael's scissors,1,4_scissors,girl,1_pencil,2_rulers,3_erasers,1_pencil,1_eraser,boy,boy,girl,,,,,,,,boy with scissors,9195,stationeries,big,,1,7,,boy,,4_scissors,2,,boy,1,1,noDet,1
204,35,List1,Exp,,GirlAllMichaelRulers,,3,9,all,,AOI4,AOI10,all,,8,33-33,Michael's,,Click on the girl that has all of Michael's rulers,1,2_scissors,girl,3_pencils,2_erasers,3_rulers,1_eraser,1_scissor,boy,boy,girl,,,,,,,,girl with ruler,7519,stationeries,big,,4,10,,girl,,3_rulers,3,,girl,1,1,noDet,1
205,35,List1,Exp,,BoyAllSusanApples,,2,8,all,,AOI1,AOI7,all,,22,44-22,Susan's,,Click on the boy that has all of Susan's apples,1,2_apples,girl,3_pears,3_oranges,2_bananas,1_orange,1_pear,boy,boy,girl,,,,,,,,boy with apples,5263,fruit,small,,1,7,,boy,,2_apples,4,,boy,1,1,noDet,1
206,35,List1,Filler,,GirlFourSusanOranges,,4,10,four,,AOI3,AOI9,four,,45,44-22,Susan's,,Click on the girl that has four of Susan's oranges,1,2_pears,girl,3_apples,4_oranges,1_banana,1_banana,1_apple,boy,boy,girl,,,,,,,,girl with oranges,6210,fruit,big,,3,9,,girl,,4_oranges,5,,girl,1,1,noDet,1
207,35,List1,Exp,,BoySomeAmySpoons,,1,7,some,,AOI2,AOI8,some,,33,44-22,Amy's,,Click on the boy that has some of Amy's spoons,1,2_plates,girl,3_spoons,2_forks,3_knives,1_spoon,1_knife,boy,boy,girl,,,,,,,,boy with spoons,7222,kitchenwares,big,,2,8,,boy,,3_spoons,6,,boy,1,1,noDet,1
208,35,List1,Exp,,GirlTwoMichaelRulers,,4,10,num,,AOI3,AOI9,two,,9,33-33,Michael's,,Click on the girl that has two of Michael's rulers,1,3_pencils,girl,2_scissors,2_rulers,3_erasers,1_ruler,1_scissor,boy,boy,girl,,,,,,,,girl with rulers,4749,stationeries,small,,3,9,,girl,,2_rulers,7,,girl,1,1,noDet,1
209,35,List1,Exp,,GirlSomeAmyPlates,,3,9,some,,AOI4,AOI10,some,,16,33-33,Amy's,,Click on the girl that has some of Amy's plates,1,2_forks,girl,3_knives,3_spoons,2_plates,1_fork,1_plate,boy,boy,girl,,,,,,,,girl with plates,4754,kitchenwares,small,,4,10,,girl,,2_plates,8,,girl,1,1,noDet,1
210,35,List1,Exp,,BoyThreeMichaelErasers,,1,7,num,,AOI2,AOI8,three,,27,44-22,Michael's,,Click on the boy that has three of Michael's erasers,1,2_rulers,girl,3_erasers,2_scissors,3_pencils,1_pencil,1_eraser,boy,boy,girl,,,,,,,,boy with erasers,12237,stationeries,big,,2,8,,boy,,3_erasers,9,,boy,1,1,noDet,1
211,35,List1,Filler,,GirlOneMichaelErasers,,4,10,one,,AOI3,AOI9,one,,41,33-33,Michael's,,Click on the girl that has one of Michael's erasers,1,3_pencils,girl,3_scissors,1_eraser,3_rulers,2_erasers,0,boy,boy,girl,,,,,,,,girl with eraser,8727,stationeries,small,,3,9,,girl,,1_eraser,10,,girl,1,1,noDet,1
212,35,List1,Exp,,GirlSomeAmyKnives,,4,10,some,,AOI3,AOI9,some,,15,33-33,Amy's,,Click on the girl that has some of Amy's knives,1,2_spoons,girl,3_plates,2_knives,3_forks,1_spoon,1_knife,boy,boy,girl,,,,,,,,girl with knives,5206,kitchenwares,small,,3,9,,girl,,2_knives,11,,girl,1,1,noDet,1
213,35,List1,Exp,,BoyTwoAmySpoons,,2,8,num,,AOI1,AOI7,two,,32,44-22,Amy's,,Click on the boy that has two of Amy's spoons,1,2_spoons,girl,3_knives,3_forks,2_plates,1_fork,1_knife,boy,boy,girl,,,,,,,,boy with spoons,5578,kitchenwares,small,,1,7,,boy,,2_spoons,12,,boy,1,1,noDet,1
214,35,List1,Exp,,BoySomeSusanPears,,2,8,some,,AOI1,AOI7,some,,1,33-33,Susan's,,Click on the boy that has some of Susan's pears,1,2_pears,girl,3_bananas,2_apples,3_oranges,1_apple,1_pear,boy,boy,girl,,,,,,,,boy with pears,4990,fruit,small,,1,7,,boy,,2_pears,13,,boy,1,1,noDet,1
215,35,List1,Filler,,GirlOneSusanPears,,3,9,one,,AOI4,AOI10,one,,42,33-33,Susan's,,Click on the girl that has one of Susan's pears,1,3_bananas,girl,3_oranges,3_apples,1_pear,2_pears,0,boy,boy,girl,,,,,,,,girl with pear,4605,fruit,small,,4,10,,girl,,1_pear,14,,girl,1,1,noDet,1
216,35,List1,Filler,,BoyOneSusanApples,,2,8,one,,AOI1,AOI7,one,,37,33-33,Susan's,,Click on the boy that has one of Susan's apples,1,1_apple,girl,3_pears,3_bananas,3_oranges,2_apples,0,boy,boy,girl,,,,,,,,boy with apple,5439,fruit,small,,1,7,,boy,,1_apple,15,,boy,1,1,noDet,1
217,35,List1,Exp,,GirlTwoSusanBananas,,3,9,num,,AOI4,AOI10,two,,5,33-33,Susan's,,Click on the girl that has two of Susan's bananas,1,2_pears,girl,3_apples,3_oranges,2_bananas,1_banana,1_pear,boy,boy,girl,,,,,,,,girl with bananas,5971,fruit,small,,4,10,,girl,,2_bananas,16,,girl,1,1,noDet,1
218,35,List1,Exp,,BoySomeMichaelErasers,,2,8,some,,AOI1,AOI7,some,,11,33-33,Michael's,,Click on the boy that has some of Michael's erasers,1,2_erasers,girl,3_pencils,2_rulers,3_scissors,1_ruler,1_eraser,boy,boy,girl,,,,,,,,boy with erasers,6154,stationeries,small,,1,7,,boy,,2_erasers,17,,boy,1,1,noDet,1
219,35,List1,Exp,,BoySomeMichaelPencils,,2,8,some,,AOI1,AOI7,some,,29,44-22,Michael's,,Click on the boy that has some of Michael's pencils,1,3_pencils,girl,2_erasers,3_scissors,2_rulers,1_pencil,1_scissor,boy,boy,girl,,,,,,,,boy with pencils,8270,stationeries,big,,1,7,,boy,,3_pencils,18,,boy,1,1,noDet,1
220,35,List1,Exp,,GirlSomeAmyForks,,4,10,some,,AOI3,AOI9,some,,34,44-22,Amy's,,Click on the girl that has some of Amy's forks,1,2_spoons,girl,3_plates,3_forks,2_knives,1_fork,1_plate,boy,boy,girl,,,,,,,,girl with forks,5562,kitchenwares,big,,3,9,,girl,,3_forks,19,,girl,1,1,noDet,1
221,35,List1,Exp,,BoyThreeAmyPlates,,2,8,num,,AOI1,AOI7,three,,31,44-22,Amy's,,Click on the boy that has three of Amy's plates,1,3_plates,girl,2_forks,3_spoons,2_knives,1_spoon,1_plate,boy,boy,girl,,,,,,,,boy with plates,4698,kitchenwares,big,,1,7,,boy,,3_plates,20,,boy,1,1,noDet,1
222,35,List1,Exp,,GirlSomeMichaelRulers,,3,9,some,,AOI4,AOI10,some,,30,44-22,Michael's,,Click on the girl that has some of Michael's rulers,1,3_erasers,girl,2_pencils,2_scissors,3_rulers,1_ruler,1_eraser,boy,boy,girl,,,,,,,,girl with rulers,5592,stationeries,big,,4,10,,girl,,3_rulers,21,,girl,1,1,noDet,1
223,35,List1,Exp,,GirlThreeSusanOranges,,4,10,num,,AOI3,AOI9,three,,23,44-22,Susan's,,Click on the girl that has three of Susan's oranges,1,3_apples,girl,2_pears,3_oranges,2_bananas,1_apple,1_orange,boy,boy,girl,,,,,,,,girl with oranges,4883,fruit,big,,3,9,,girl,,3_oranges,22,,girl,1,1,noDet,1
224,35,List1,Exp,,BoyAllAmyKnives,,2,8,all,,AOI1,AOI7,all,,18,33-33,Amy's,,Click on the boy that has all of Amy's knives,1,3_knives,girl,2_plates,3_spoons,2_forks,1_plate,1_fork,boy,boy,girl,,,,,,,,boy with knives,6688,kitchenwares,big,,1,7,,boy,,3_knives,23,,boy,1,1,noDet,1
225,35,List1,Exp,,GirlTwoAmyForks,,3,9,num,,AOI4,AOI10,two,,13,33-33,Amy's,,Click on the girl that has two of Amy's forks,1,2_knives,girl,3_spoons,3_plates,2_forks,1_fork,1_knife,boy,boy,girl,,,,,,,,girl with forks,4730,kitchenwares,small,,4,10,,girl,,2_forks,24,,girl,1,1,noDet,1
226,35,List1,Filler,,BoyOneMichaelRulers,,1,7,one,,AOI2,AOI8,one,,40,33-33,Michael's,,Click on the boy that has one of Michael's rulers,1,3_erasers,girl,1_ruler,3_pencils,3_scissors,2_scissors,0,boy,boy,girl,,,,,,,,boy with ruler,3960,stationeries,small,,2,8,,boy,,1_ruler,25,,boy,1,1,noDet,1
227,35,List1,Exp,,BoyTwoMichaelPencils,,1,7,num,,AOI2,AOI8,two,,28,44-22,Michael's,,Click on the boy that has two of Michael's pencils,1,3_scissors,girl,2_pencils,2_erasers,3_rulers,1_ruler,1_scissor,boy,boy,girl,,,,,,,,boy with pencils,6248,stationeries,small,,2,8,,boy,,2_pencils,26,,boy,1,1,noDet,1
228,35,List1,Exp,,BoyThreeAmyKnives,,1,7,num,,AOI2,AOI8,three,,14,33-33,Amy's,,Click on the boy that has three of Amy's knives,1,2_spoons,girl,3_knives,2_plates,3_forks,1_spoon,1_plate,boy,boy,girl,,,,,,,,boy with knives,7046,kitchenwares,big,,2,8,,boy,,3_knives,27,,boy,1,1,noDet,1
229,35,List1,Exp,,GirlThreeMichaelScissors,,4,10,num,,AOI3,AOI9,three,,10,33-33,Michael's,,Click on the girl that has three of Michael's scissors,1,3_rulers,girl,2_erasers,3_scissors,2_pencils,1_pencil,1_eraser,boy,boy,girl,,,,,,,,girl with scissors,6793,stationeries,big,,3,9,,girl,,3_scissors,28,,girl,1,1,noDet,1
230,35,List1,Exp,,BoyTwoSusanApples,,2,8,num,,AOI1,AOI7,two,,24,44-22,Susan's,,Click on the boy that has two of Susan's apples,1,2_apples,girl,3_pears,3_bananas,2_oranges,1_banana,1_pear,boy,boy,girl,,,,,,,,boy with apples,5047,fruit,small,,1,7,,boy,,2_apples,29,,boy,1,1,noDet,1
231,35,List1,Filler,,BoyOneAmySpoons,,1,7,one,,AOI2,AOI8,one,,39,33-33,Amy's,,Click on the boy that has one of Amy's spoons,1,3_forks,girl,1_spoon,3_plates,3_knives,2_spoons,0,boy,boy,girl,,,,,,,,boy with spoon,5247,kitchenwares,small,,2,8,,boy,,1_spoon,30,,boy,1,1,noDet,1
232,35,List1,Exp,,GirlAllMichaelPencils,,3,9,all,,AOI4,AOI10,all,,25,44-22,Michael's,,Click on the girl that has all of Michael's pencils,1,3_erasers,girl,2_rulers,3_scissors,2_pencils,1_eraser,1_scissor,boy,boy,girl,,,,,,,,girl with pencils,5478,stationeries,small,,4,10,,girl,,2_pencils,31,,girl,1,1,noDet,1
233,35,List1,Exp,,BoyAllAmyForks,,1,7,all,,AOI2,AOI8,all,,17,33-33,Amy's,,Click on the boy that has all of Amy's forks,1,2_spoons,girl,3_forks,2_knives,3_plates,1_spoon,1_knife,boy,boy,girl,,,,,,,,boy with forks,4918,kitchenwares,big,,2,8,,boy,,3_forks,32,,boy,1,1,noDet,1
234,35,List1,Filler,,GirlFourMichaelPencils,,3,9,four,,AOI4,AOI10,four,,48,44-22,Michael's,,Click on the girl that has four of Michael's pencils,1,1_ruler,girl,2_erasers,3_scissors,4_pencils,1_ruler,1_scissor,boy,boy,girl,,,,,,,,girl with pencils,5512,stationeries,big,,4,10,,girl,,4_pencils,33,,girl,1,1,noDet,1
235,35,List1,Exp,,GirlAllAmySpoons,,4,10,all,,AOI3,AOI9,all,,36,44-22,Amy's,,Click on the girl that has all of Amy's spoons,1,3_plates,girl,2_knives,2_spoons,3_forks,1_plate,1_fork,boy,boy,girl,,,,,,,,girl with spoons,5064,kitchenwares,small,,3,9,,girl,,2_spoons,34,,girl,1,1,noDet,1
236,35,List1,Filler,,GirlFourAmyKnives,,4,10,four,,AOI3,AOI9,four,,46,44-22,Amy's,,Click on the girl that has four of Amy's knives,1,1_spoon,girl,3_plates,4_knives,2_forks,1_spoon,1_plate,boy,boy,girl,,,,,,,,girl with knives,4266,kitchenwares,big,,3,9,,girl,,4_knives,35,,girl,1,1,noDet,1
237,35,List1,Exp,,GirlAllAmyPlates,,3,9,all,,AOI4,AOI10,all,,35,44-22,Amy's,,Click on the girl that has all of Amy's plates,1,3_spoons,girl,2_forks,3_knives,2_plates,1_spoon,1_knife,boy,boy,girl,,,,,,,,girl with plates,6007,kitchenwares,small,,4,10,,girl,,2_plates,36,,girl,1,1,noDet,1
238,35,List1,Exp,,BoyAllSusanOranges,,1,7,all,,AOI2,AOI8,all,,21,44-22,Susan's,,Click on the boy that has all of Susan's oranges,1,3_bananas,girl,2_oranges,3_apples,2_pears,1_apple,1_banana,boy,boy,girl,,,,,,,,boy with oranges,4780,fruit,small,,2,8,,boy,,2_oranges,37,,boy,1,1,noDet,1
239,35,List1,Exp,,BoyAllMichaelScissors,,2,8,all,,AOI1,AOI7,all,,7,33-33,Michael's,,Click on the boy that has all of Michael's scissors,1,3_scissors,girl,2_pencils,3_erasers,2_rulers,1_pencil,1_ruler,boy,boy,girl,,,,,,,,boy with scissors,5509,stationeries,big,,1,7,,boy,,3_scissors,38,,boy,1,1,noDet,1
240,35,List1,Filler,,GirlFourAmyPlates,,3,9,four,,AOI4,AOI10,four,,47,44-22,Amy's,,Click on the girl that has four of Amy's plates,1,1_knife,girl,3_forks,2_spoons,4_plates,1_knife,1_fork,boy,boy,girl,,,,,,,,girl with plates,4580,kitchenwares,big,,4,10,,girl,,4_plates,39,,girl,1,1,noDet,1
241,35,List1,Filler,,BoyOneAmyPlates,,2,8,one,,AOI1,AOI7,one,,38,33-33,Amy's,,Click on the boy that has one of Amy's plates,1,1_plate,girl,3_knives,3_forks,3_spoons,2_plates,0,boy,boy,girl,,,,,,,,boy with plate,4732,kitchenwares,small,,1,7,,boy,,1_plate,40,,boy,1,1,noDet,1
242,35,List1,Exp,,BoySomeSusanOranges,,1,7,some,,AOI2,AOI8,some,,2,33-33,Susan's,,Click on the boy that has some of Susan's oranges,1,3_apples,girl,2_oranges,2_bananas,3_pears,1_banana,1_orange,boy,boy,girl,,,,,,,,boy with oranges,4715,fruit,small,,2,8,,boy,,2_oranges,41,,boy,1,1,noDet,1
243,35,List1,Filler,,BoyFourSusanBananas,,1,7,four,,AOI2,AOI8,four,,44,44-22,Susan's,,Click on the boy that has four of Susan's bananas,1,1_orange,girl,4_bananas,3_pears,2_apples,1_orange,1_pear,boy,boy,girl,,,,,,,,boy with bananas,5603,fruit,big,,2,8,,boy,,4_bananas,42,,boy,1,1,noDet,1
244,35,List1,Exp,,BoySomeMichaelScissors,,1,7,some,,AOI2,AOI8,some,,12,33-33,Michael's,,Click on the boy that has some of Michael's scissors,1,3_rulers,girl,2_scissors,2_pencils,3_erasers,1_pencil,1_scissor,boy,boy,girl,,,,,,,,boy with scissors,5888,stationeries,small,,2,8,,boy,,2_scissors,43,,boy,1,1,noDet,1
245,35,List1,Exp,,BoyAllSusanPears,,1,7,all,,AOI2,AOI8,all,,3,33-33,Susan's,,Click on the boy that has all of Susan's pears,1,2_apples,girl,3_pears,2_bananas,3_oranges,1_apple,1_banana,boy,boy,girl,,,,,,,,boy with pears,5184,fruit,big,,2,8,,boy,,3_pears,44,,boy,1,1,noDet,1
246,35,List1,Exp,,GirlAllMichaelErasers,,4,10,all,,AOI3,AOI9,all,,26,44-22,Michael's,,Click on the girl that has all of Michael's erasers,1,3_pencils,girl,2_scissors,2_erasers,3_rulers,1_pencil,1_ruler,boy,boy,girl,,,,,,,,girl with erasers,5462,stationeries,small,,3,9,,girl,,2_erasers,45,,girl,1,1,noDet,1
247,35,List1,Exp,,GirlSomeSusanBananas,,3,9,some,,AOI4,AOI10,some,,19,44-22,Susan's,,Click on the girl that has some of Susan's bananas,1,3_oranges,girl,2_apples,2_pears,3_bananas,1_banana,1_orange,boy,boy,girl,,,,,,,,girl with bananas,4676,fruit,big,,4,10,,girl,,3_bananas,46,,girl,1,1,noDet,1
248,35,List1,Exp,,GirlSomeSusanApples,,4,10,some,,AOI3,AOI9,some,,20,44-22,Susan's,,Click on the girl that has some of Susan's apples,1,3_pears,girl,2_bananas,3_apples,2_oranges,1_apple,1_pear,boy,boy,girl,,,,,,,,girl with apples,4539,fruit,big,,3,9,,girl,,3_apples,47,,girl,1,1,noDet,1
249,35,List1,Exp,,GirlAllSusanBananas,,4,10,all,,AOI3,AOI9,all,,4,33-33,Susan's,,Click on the girl that has all of Susan's bananas,1,2_pears,girl,3_apples,3_bananas,2_oranges,1_orange,1_pear,boy,boy,girl,,,,,,,,girl with bananas,6341,fruit,big,,3,9,,girl,,3_bananas,48,,girl,1,1,noDet,1
250,79,List1,Prac,kitchware_Amy_Monday,,Residue_kitchen,4,,,num,AOI3,AOI9,,three,5,44-22,Amy,Click on the girl that has three of Amy's knives,,,2_spoons,girl,3_forks,3_knives,2_plates,1_fork,1_knife,boy,boy,girl,knives,D4_forks,D2_spoons,D4_knives,production practice,1,GirlThreeAmyknives,girl with three knives,,kitchenwares,,big,3,,girl,,3_knives,,,,girl,0,0,three,0
251,79,List1,Prac,kitchware_Amy_Tuesday,,Slience,2,,,some,AOI4,AOI10,,some,6,33-33,Amy,Click on the girl that has some of Amy's forks,,,3_spoons,girl,2_knives,3_plates,2_forks,1_fork,1_knife,boy,boy,girl,forks,D3_forks,D3_spoons,D3_knives,production practice,2,GirlSomeAmyforks,girl with two forks,,kitchenwares,,big,4,,girl,,2_forks,,,,girl,0,0,two,0
252,79,List1,Exp,,GirlAllMichaelRulers,,3,9,all,,AOI4,AOI10,all,,8,33-33,Michael's,,Click on the girl that has all of Michael's rulers,1,2_scissors,girl,3_pencils,2_erasers,3_rulers,1_eraser,1_scissor,boy,boy,girl,,,,,,,,girl with three rulers,6783,stationeries,big,,4,10,,girl,,3_rulers,1,,girl,1,1,three,1
253,79,List1,Exp,,BoyAllSusanApples,,2,8,all,,AOI1,AOI7,all,,22,44-22,Susan's,,Click on the boy that has all of Susan's apples,1,2_apples,girl,3_pears,3_oranges,2_bananas,1_orange,1_pear,boy,boy,girl,,,,,,,,boy with two apples,5319,fruit,small,,1,7,,boy,,2_apples,2,,boy,1,1,two,1
254,79,List1,Filler,,GirlFourAmyKnives,,4,10,four,,AOI3,AOI9,four,,46,44-22,Amy's,,Click on the girl that has four of Amy's knives,1,1_spoon,girl,3_plates,4_knives,2_forks,1_spoon,1_plate,boy,boy,girl,,,,,,,,girl with four knives,6075,kitchenwares,big,,3,9,,girl,,4_knives,3,,girl,1,1,four,1
255,79,List1,Exp,,BoySomeSusanOranges,,1,7,some,,AOI2,AOI8,some,,2,33-33,Susan's,,Click on the boy that has some of Susan's oranges,1,3_apples,girl,2_oranges,2_bananas,3_pears,1_banana,1_orange,boy,boy,girl,,,,,,,,boy with two oranges,3374,fruit,small,,2,8,,boy,,2_oranges,4,,boy,1,1,two,1
256,79,List1,Exp,,GirlThreeSusanOranges,,4,10,num,,AOI3,AOI9,three,,23,44-22,Susan's,,Click on the girl that has three of Susan's oranges,1,3_apples,girl,2_pears,3_oranges,2_bananas,1_apple,1_orange,boy,boy,girl,,,,,,,,girl with three oranges,6391,fruit,big,,3,9,,girl,,3_oranges,5,,girl,1,1,three,1
257,79,List1,Filler,,BoyOneAmyPlates,,2,8,one,,AOI1,AOI7,one,,38,33-33,Amy's,,Click on the boy that has one of Amy's plates,1,1_plate,girl,3_knives,3_forks,3_spoons,2_plates,0,boy,boy,girl,,,,,,,,boy with one plate,6597,kitchenwares,small,,1,7,,boy,,1_plate,6,,boy,1,1,one,1
258,79,List1,Exp,,BoySomeMichaelScissors,,1,7,some,,AOI2,AOI8,some,,12,33-33,Michael's,,Click on the boy that has some of Michael's scissors,1,3_rulers,girl,2_scissors,2_pencils,3_erasers,1_pencil,1_scissor,boy,boy,girl,,,,,,,,boy with two sisscors,10723,stationeries,small,,2,8,,boy,,2_scissors,7,,boy,1,1,two,1
259,79,List1,Filler,,GirlFourSusanOranges,,4,10,four,,AOI3,AOI9,four,,45,44-22,Susan's,,Click on the girl that has four of Susan's oranges,1,2_pears,girl,3_apples,4_oranges,1_banana,1_banana,1_apple,boy,boy,girl,,,,,,,,girl with four oranges,5872,fruit,big,,3,9,,girl,,4_oranges,8,,girl,1,1,four,1
260,79,List1,Exp,,BoyAllAmyForks,,1,7,all,,AOI2,AOI8,all,,17,33-33,Amy's,,Click on the boy that has all of Amy's forks,1,2_spoons,girl,3_forks,2_knives,3_plates,1_spoon,1_knife,boy,boy,girl,,,,,,,,boy with three forks,3844,kitchenwares,big,,2,8,,boy,,3_forks,9,,boy,1,1,three,1
261,79,List1,Filler,,BoyOneSusanApples,,2,8,one,,AOI1,AOI7,one,,37,33-33,Susan's,,Click on the boy that has one of Susan's apples,1,1_apple,girl,3_pears,3_bananas,3_oranges,2_apples,0,boy,boy,girl,,,,,,,,boy with one apple,4888,fruit,small,,1,7,,boy,,1_apple,10,,boy,1,1,one,1
262,79,List1,Exp,,GirlSomeAmyPlates,,3,9,some,,AOI4,AOI10,some,,16,33-33,Amy's,,Click on the girl that has some of Amy's plates,1,2_forks,girl,3_knives,3_spoons,2_plates,1_fork,1_plate,boy,boy,girl,,,,,,,,girl with two plates,3563,kitchenwares,small,,4,10,,girl,,2_plates,11,,girl,1,1,two,1
263,79,List1,Exp,,GirlSomeAmyKnives,,4,10,some,,AOI3,AOI9,some,,15,33-33,Amy's,,Click on the girl that has some of Amy's knives,1,2_spoons,girl,3_plates,2_knives,3_forks,1_spoon,1_knife,boy,boy,girl,,,,,,,,girl with two knives,3348,kitchenwares,small,,3,9,,girl,,2_knives,12,,girl,1,1,two,1
264,79,List1,Exp,,BoyThreeAmyKnives,,1,7,num,,AOI2,AOI8,three,,14,33-33,Amy's,,Click on the boy that has three of Amy's knives,1,2_spoons,girl,3_knives,2_plates,3_forks,1_spoon,1_plate,boy,boy,girl,,,,,,,,boy with three knives,4168,kitchenwares,big,,2,8,,boy,,3_knives,13,,boy,1,1,three,1
265,79,List1,Exp,,BoyAllAmyKnives,,2,8,all,,AOI1,AOI7,all,,18,33-33,Amy's,,Click on the boy that has all of Amy's knives,1,3_knives,girl,2_plates,3_spoons,2_forks,1_plate,1_fork,boy,boy,girl,,,,,,,,boy with three knives,4228,kitchenwares,big,,1,7,,boy,,3_knives,14,,boy,1,1,three,1
266,79,List1,Exp,,BoySomeMichaelPencils,,2,8,some,,AOI1,AOI7,some,,29,44-22,Michael's,,Click on the boy that has some of Michael's pencils,1,3_pencils,girl,2_erasers,3_scissors,2_rulers,1_pencil,1_scissor,boy,boy,girl,,,,,,,,boy with three pencils,4324,stationeries,big,,1,7,,boy,,3_pencils,15,,boy,1,1,three,1
267,79,List1,Filler,,BoyFourMichaelScissors,,2,8,four,,AOI1,AOI7,four,,43,44-22,Michael's,,Click on the boy that has four of Michael's scissors,1,4_scissors,girl,1_pencil,2_rulers,3_erasers,1_pencil,1_eraser,boy,boy,girl,,,,,,,,boy with four sisscors,5041,stationeries,big,,1,7,,boy,,4_scissors,16,,boy,1,1,four,1
268,79,List1,Exp,,GirlTwoMichaelRulers,,4,10,num,,AOI3,AOI9,two,,9,33-33,Michael's,,Click on the girl that has two of Michael's rulers,1,3_pencils,girl,2_scissors,2_rulers,3_erasers,1_ruler,1_scissor,boy,boy,girl,,,,,,,,girl with two rulers,4397,stationeries,small,,3,9,,girl,,2_rulers,17,,girl,1,1,two,1
269,79,List1,Exp,,BoyTwoMichaelPencils,,1,7,num,,AOI2,AOI8,two,,28,44-22,Michael's,,Click on the boy that has two of Michael's pencils,1,3_scissors,girl,2_pencils,2_erasers,3_rulers,1_ruler,1_scissor,boy,boy,girl,,,,,,,,boy with two pencils,3809,stationeries,small,,2,8,,boy,,2_pencils,18,,boy,1,1,two,1
270,79,List1,Exp,,BoyAllSusanOranges,,1,7,all,,AOI2,AOI8,all,,21,44-22,Susan's,,Click on the boy that has all of Susan's oranges,1,3_bananas,girl,2_oranges,3_apples,2_pears,1_apple,1_banana,boy,boy,girl,,,,,,,,boy with two oranges,8326,fruit,small,,2,8,,boy,,2_oranges,19,,boy,1,1,two,1
271,79,List1,Filler,,GirlOneSusanPears,,3,9,one,,AOI4,AOI10,one,,42,33-33,Susan's,,Click on the girl that has one of Susan's pears,1,3_bananas,girl,3_oranges,3_apples,1_pear,2_pears,0,boy,boy,girl,,,,,,,,girl with one pear,4203,fruit,small,,4,10,,girl,,1_pear,20,,girl,1,1,one,1
272,79,List1,Exp,,GirlAllMichaelPencils,,3,9,all,,AOI4,AOI10,all,,25,44-22,Michael's,,Click on the girl that has all of Michael's pencils,1,3_erasers,girl,2_rulers,3_scissors,2_pencils,1_eraser,1_scissor,boy,boy,girl,,,,,,,,girl with two pencils,3778,stationeries,small,,4,10,,girl,,2_pencils,21,,girl,1,1,two,1
273,79,List1,Exp,,BoyAllSusanPears,,1,7,all,,AOI2,AOI8,all,,3,33-33,Susan's,,Click on the boy that has all of Susan's pears,1,2_apples,girl,3_pears,2_bananas,3_oranges,1_apple,1_banana,boy,boy,girl,,,,,,,,boy with three pears,5009,fruit,big,,2,8,,boy,,3_pears,22,,boy,1,1,three,1
274,79,List1,Exp,,GirlTwoSusanBananas,,3,9,num,,AOI4,AOI10,two,,5,33-33,Susan's,,Click on the girl that has two of Susan's bananas,1,2_pears,girl,3_apples,3_oranges,2_bananas,1_banana,1_pear,boy,boy,girl,,,,,,,,girl with two banans,3726,fruit,small,,4,10,,girl,,2_bananas,23,,girl,1,1,two,1
275,79,List1,Exp,,GirlTwoAmyForks,,3,9,num,,AOI4,AOI10,two,,13,33-33,Amy's,,Click on the girl that has two of Amy's forks,1,2_knives,girl,3_spoons,3_plates,2_forks,1_fork,1_knife,boy,boy,girl,,,,,,,,girl with two forks,3802,kitchenwares,small,,4,10,,girl,,2_forks,24,,girl,1,1,two,1
276,79,List1,Exp,,GirlAllAmyPlates,,3,9,all,,AOI4,AOI10,all,,35,44-22,Amy's,,Click on the girl that has all of Amy's plates,1,3_spoons,girl,2_forks,3_knives,2_plates,1_spoon,1_knife,boy,boy,girl,,,,,,,,girl with two plates,3576,kitchenwares,small,,4,10,,girl,,2_plates,25,,girl,1,1,two,1
277,79,List1,Exp,,GirlSomeMichaelRulers,,3,9,some,,AOI4,AOI10,some,,30,44-22,Michael's,,Click on the girl that has some of Michael's rulers,1,3_erasers,girl,2_pencils,2_scissors,3_rulers,1_ruler,1_eraser,boy,boy,girl,,,,,,,,girl with three rulers,4161,stationeries,big,,4,10,,girl,,3_rulers,26,,girl,1,1,three,1
278,79,List1,Filler,,GirlOneMichaelErasers,,4,10,one,,AOI3,AOI9,one,,41,33-33,Michael's,,Click on the girl that has one of Michael's erasers,1,3_pencils,girl,3_scissors,1_eraser,3_rulers,2_erasers,0,boy,boy,girl,,,,,,,,girl with one eraser,4070,stationeries,small,,3,9,,girl,,1_eraser,27,,girl,1,1,one,1
279,79,List1,Filler,,BoyOneAmySpoons,,1,7,one,,AOI2,AOI8,one,,39,33-33,Amy's,,Click on the boy that has one of Amy's spoons,1,3_forks,girl,1_spoon,3_plates,3_knives,2_spoons,0,boy,boy,girl,,,,,,,,boy with one spoon,3265,kitchenwares,small,,2,8,,boy,,1_spoon,28,,boy,1,1,one,1
280,79,List1,Exp,,BoyThreeMichaelErasers,,1,7,num,,AOI2,AOI8,three,,27,44-22,Michael's,,Click on the boy that has three of Michael's erasers,1,2_rulers,girl,3_erasers,2_scissors,3_pencils,1_pencil,1_eraser,boy,boy,girl,,,,,,,,boy with three erasers,5534,stationeries,big,,2,8,,boy,,3_erasers,29,,boy,1,1,three,1
281,79,List1,Exp,,BoySomeMichaelErasers,,2,8,some,,AOI1,AOI7,some,,11,33-33,Michael's,,Click on the boy that has some of Michael's erasers,1,2_erasers,girl,3_pencils,2_rulers,3_scissors,1_ruler,1_eraser,boy,boy,girl,,,,,,,,boy with two erasers,5397,stationeries,small,,1,7,,boy,,2_erasers,30,,boy,1,1,two,1
282,79,List1,Exp,,BoyThreeAmyPlates,,2,8,num,,AOI1,AOI7,three,,31,44-22,Amy's,,Click on the boy that has three of Amy's plates,1,3_plates,girl,2_forks,3_spoons,2_knives,1_spoon,1_plate,boy,boy,girl,,,,,,,,boy with three plate,4826,kitchenwares,big,,1,7,,boy,,3_plates,31,,boy,1,1,three,1
283,79,List1,Filler,,GirlFourAmyPlates,,3,9,four,,AOI4,AOI10,four,,47,44-22,Amy's,,Click on the girl that has four of Amy's plates,1,1_knife,girl,3_forks,2_spoons,4_plates,1_knife,1_fork,boy,boy,girl,,,,,,,,girl with four plates,6365,kitchenwares,big,,4,10,,girl,,4_plates,32,,girl,1,1,four,1
284,79,List1,Exp,,GirlAllMichaelErasers,,4,10,all,,AOI3,AOI9,all,,26,44-22,Michael's,,Click on the girl that has all of Michael's erasers,1,3_pencils,girl,2_scissors,2_erasers,3_rulers,1_pencil,1_ruler,boy,boy,girl,,,,,,,,girl with two erasers,7045,stationeries,small,,3,9,,girl,,2_erasers,33,,girl,1,1,two,1
285,79,List1,Exp,,GirlAllSusanBananas,,4,10,all,,AOI3,AOI9,all,,4,33-33,Susan's,,Click on the girl that has all of Susan's bananas,1,2_pears,girl,3_apples,3_bananas,2_oranges,1_orange,1_pear,boy,boy,girl,,,,,,,,girl with three bananas,6439,fruit,big,,3,9,,girl,,3_bananas,34,,girl,1,1,three,1
286,79,List1,Exp,,GirlThreeSusanPears,,3,9,num,,AOI4,AOI10,three,,6,33-33,Susan's,,Click on the girl that has three of Susan's pears,1,2_oranges,girl,3_bananas,2_apples,3_pears,1_apple,1_orange,boy,boy,girl,,,,,,,,girl with three pears,3298,fruit,big,,4,10,,girl,,3_pears,35,,girl,1,1,three,1
287,79,List1,Exp,,BoyAllMichaelScissors,,2,8,all,,AOI1,AOI7,all,,7,33-33,Michael's,,Click on the boy that has all of Michael's scissors,1,3_scissors,girl,2_pencils,3_erasers,2_rulers,1_pencil,1_ruler,boy,boy,girl,,,,,,,,boy with three scissors,13374,stationeries,big,,1,7,,boy,,3_scissors,36,,boy,1,1,three,1
288,79,List1,Exp,,BoySomeAmySpoons,,1,7,some,,AOI2,AOI8,some,,33,44-22,Amy's,,Click on the boy that has some of Amy's spoons,1,2_plates,girl,3_spoons,2_forks,3_knives,1_spoon,1_knife,boy,boy,girl,,,,,,,,boy with three spoons,4378,kitchenwares,big,,2,8,,boy,,3_spoons,37,,boy,1,1,three,1
289,79,List1,Exp,,BoyTwoSusanApples,,2,8,num,,AOI1,AOI7,two,,24,44-22,Susan's,,Click on the boy that has two of Susan's apples,1,2_apples,girl,3_pears,3_bananas,2_oranges,1_banana,1_pear,boy,boy,girl,,,,,,,,boy with two apples,3994,fruit,small,,1,7,,boy,,2_apples,38,,boy,1,1,two,1
290,79,List1,Exp,,GirlSomeAmyForks,,4,10,some,,AOI3,AOI9,some,,34,44-22,Amy's,,Click on the girl that has some of Amy's forks,1,2_spoons,girl,3_plates,3_forks,2_knives,1_fork,1_plate,boy,boy,girl,,,,,,,,girl with three forks,3286,kitchenwares,big,,3,9,,girl,,3_forks,39,,girl,1,1,three,1
291,79,List1,Exp,,GirlThreeMichaelScissors,,4,10,num,,AOI3,AOI9,three,,10,33-33,Michael's,,Click on the girl that has three of Michael's scissors,1,3_rulers,girl,2_erasers,3_scissors,2_pencils,1_pencil,1_eraser,boy,boy,girl,,,,,,,,girl with three scissors,4201,stationeries,big,,3,9,,girl,,3_scissors,40,,girl,1,1,three,1
292,79,List1,Exp,,GirlSomeSusanBananas,,3,9,some,,AOI4,AOI10,some,,19,44-22,Susan's,,Click on the girl that has some of Susan's bananas,1,3_oranges,girl,2_apples,2_pears,3_bananas,1_banana,1_orange,boy,boy,girl,,,,,,,,girl with three bananas,4875,fruit,big,,4,10,,girl,,3_bananas,41,,girl,1,1,three,1
293,79,List1,Exp,,GirlSomeSusanApples,,4,10,some,,AOI3,AOI9,some,,20,44-22,Susan's,,Click on the girl that has some of Susan's apples,1,3_pears,girl,2_bananas,3_apples,2_oranges,1_apple,1_pear,boy,boy,girl,,,,,,,,girl with three apples,4091,fruit,big,,3,9,,girl,,3_apples,42,,girl,1,1,three,1
294,79,List1,Exp,,BoyTwoAmySpoons,,2,8,num,,AOI1,AOI7,two,,32,44-22,Amy's,,Click on the boy that has two of Amy's spoons,1,2_spoons,girl,3_knives,3_forks,2_plates,1_fork,1_knife,boy,boy,girl,,,,,,,,boy with two spoons,9385,kitchenwares,small,,1,7,,boy,,2_spoons,43,,boy,1,1,two,1
295,79,List1,Exp,,GirlAllAmySpoons,,4,10,all,,AOI3,AOI9,all,,36,44-22,Amy's,,Click on the girl that has all of Amy's spoons,1,3_plates,girl,2_knives,2_spoons,3_forks,1_plate,1_fork,boy,boy,girl,,,,,,,,girl with two spoons,6138,kitchenwares,small,,3,9,,girl,,2_spoons,44,,girl,1,1,two,1
296,79,List1,Filler,,BoyOneMichaelRulers,,1,7,one,,AOI2,AOI8,one,,40,33-33,Michael's,,Click on the boy that has one of Michael's rulers,1,3_erasers,girl,1_ruler,3_pencils,3_scissors,2_scissors,0,boy,boy,girl,,,,,,,,boy with one ruler,4327,stationeries,small,,2,8,,boy,,1_ruler,45,,boy,1,1,one,1
297,79,List1,Filler,,BoyFourSusanBananas,,1,7,four,,AOI2,AOI8,four,,44,44-22,Susan's,,Click on the boy that has four of Susan's bananas,1,1_orange,girl,4_bananas,3_pears,2_apples,1_orange,1_pear,boy,boy,girl,,,,,,,,boy with four bananas,5139,fruit,big,,2,8,,boy,,4_bananas,46,,boy,1,1,four,1
298,79,List1,Filler,,GirlFourMichaelPencils,,3,9,four,,AOI4,AOI10,four,,48,44-22,Michael's,,Click on the girl that has four of Michael's pencils,1,1_ruler,girl,2_erasers,3_scissors,4_pencils,1_ruler,1_scissor,boy,boy,girl,,,,,,,,girl with four pencils,5316,stationeries,big,,4,10,,girl,,4_pencils,47,,girl,1,1,four,1
299,79,List1,Exp,,BoySomeSusanPears,,2,8,some,,AOI1,AOI7,some,,1,33-33,Susan's,,Click on the boy that has some of Susan's pears,1,2_pears,girl,3_bananas,2_apples,3_oranges,1_apple,1_pear,boy,boy,girl,,,,,,,,boy with pear,3141,fruit,small,,1,7,,boy,,2_pears,48,,boy,1,1,noDet,1
300,32,List1,Prac,kitchware_Amy_Monday,,Residue_kitchen,4,,,num,AOI3,AOI9,,three,5,44-22,Amy,Click on the girl that has three of Amy's knives,,,2_spoons,girl,3_forks,3_knives,2_plates,1_fork,1_knife,boy,boy,girl,knives,D4_forks,D2_spoons,D4_knives,production practice,1,GirlThreeAmyknives,woman with the knives.,,kitchenwares,,big,3,,girl,,3_knives,,,,woman,0,0,noDet,1
301,32,List1,Prac,kitchware_Amy_Tuesday,,Slience,2,,,some,AOI4,AOI10,,some,6,33-33,Amy,Click on the girl that has some of Amy's forks,,,3_spoons,girl,2_knives,3_plates,2_forks,1_fork,1_knife,boy,boy,girl,forks,D3_forks,D3_spoons,D3_knives,production practice,2,GirlSomeAmyforks,woman with the forks.,,kitchenwares,,big,4,,girl,,2_forks,,,,woman,0,0,noDet,1
302,32,List1,Exp,,BoySomeSusanPears,,2,8,some,,AOI1,AOI7,some,,1,33-33,Susan's,,Click on the boy that has some of Susan's pears,1,2_pears,girl,3_bananas,2_apples,3_oranges,1_apple,1_pear,boy,boy,girl,,,,,,,,boy with the pears.,9296,fruit,small,,1,7,,boy,,2_pears,1,,boy,1,1,noDet,1
303,32,List1,Exp,,BoyAllSusanApples,,2,8,all,,AOI1,AOI7,all,,22,44-22,Susan's,,Click on the boy that has all of Susan's apples,1,2_apples,girl,3_pears,3_oranges,2_bananas,1_orange,1_pear,boy,boy,girl,,,,,,,,boy with the apples.,9391,fruit,small,,1,7,,boy,,2_apples,2,,boy,1,1,noDet,1
304,32,List1,Filler,,GirlFourAmyPlates,,3,9,four,,AOI4,AOI10,four,,47,44-22,Amy's,,Click on the girl that has four of Amy's plates,1,1_knife,girl,3_forks,2_spoons,4_plates,1_knife,1_fork,boy,boy,girl,,,,,,,,girl with the plates.,7054,kitchenwares,big,,4,10,,girl,,4_plates,3,,girl,1,1,noDet,1
305,32,List1,Exp,,GirlSomeAmyForks,,4,10,some,,AOI3,AOI9,some,,34,44-22,Amy's,,Click on the girl that has some of Amy's forks,1,2_spoons,girl,3_plates,3_forks,2_knives,1_fork,1_plate,boy,boy,girl,,,,,,,,girl with the forks.,5926,kitchenwares,big,,3,9,,girl,,3_forks,4,,girl,1,1,noDet,1
306,32,List1,Exp,,BoyAllSusanPears,,1,7,all,,AOI2,AOI8,all,,3,33-33,Susan's,,Click on the boy that has all of Susan's pears,1,2_apples,girl,3_pears,2_bananas,3_oranges,1_apple,1_banana,boy,boy,girl,,,,,,,,boy with the pears.,5940,fruit,big,,2,8,,boy,,3_pears,5,,boy,1,1,noDet,1
307,32,List1,Exp,,BoyAllMichaelScissors,,2,8,all,,AOI1,AOI7,all,,7,33-33,Michael's,,Click on the boy that has all of Michael's scissors,1,3_scissors,girl,2_pencils,3_erasers,2_rulers,1_pencil,1_ruler,boy,boy,girl,,,,,,,,boy with the scissors.,6886,stationeries,big,,1,7,,boy,,3_scissors,6,,boy,1,1,noDet,1
308,32,List1,Exp,,GirlTwoAmyForks,,3,9,num,,AOI4,AOI10,two,,13,33-33,Amy's,,Click on the girl that has two of Amy's forks,1,2_knives,girl,3_spoons,3_plates,2_forks,1_fork,1_knife,boy,boy,girl,,,,,,,,girl with the forks.,6244,kitchenwares,small,,4,10,,girl,,2_forks,7,,girl,1,1,noDet,1
309,32,List1,Exp,,GirlAllAmyPlates,,3,9,all,,AOI4,AOI10,all,,35,44-22,Amy's,,Click on the girl that has all of Amy's plates,1,3_spoons,girl,2_forks,3_knives,2_plates,1_spoon,1_knife,boy,boy,girl,,,,,,,,girl with the plates.,5884,kitchenwares,small,,4,10,,girl,,2_plates,8,,girl,1,1,noDet,1
310,32,List1,Exp,,BoyAllSusanOranges,,1,7,all,,AOI2,AOI8,all,,21,44-22,Susan's,,Click on the boy that has all of Susan's oranges,1,3_bananas,girl,2_oranges,3_apples,2_pears,1_apple,1_banana,boy,boy,girl,,,,,,,,boy with the oranges.,31095,fruit,small,,2,8,,boy,,2_oranges,9,,boy,1,1,noDet,1
311,32,List1,Filler,,BoyOneSusanApples,,2,8,one,,AOI1,AOI7,one,,37,33-33,Susan's,,Click on the boy that has one of Susan's apples,1,1_apple,girl,3_pears,3_bananas,3_oranges,2_apples,0,boy,boy,girl,,,,,,,,boy with the apple.,6784,fruit,small,,1,7,,boy,,1_apple,10,,boy,1,1,noDet,1
312,32,List1,Exp,,GirlAllMichaelPencils,,3,9,all,,AOI4,AOI10,all,,25,44-22,Michael's,,Click on the girl that has all of Michael's pencils,1,3_erasers,girl,2_rulers,3_scissors,2_pencils,1_eraser,1_scissor,boy,boy,girl,,,,,,,,girl with the pencils.,5512,stationeries,small,,4,10,,girl,,2_pencils,11,,girl,1,1,noDet,1
313,32,List1,Exp,,GirlThreeSusanOranges,,4,10,num,,AOI3,AOI9,three,,23,44-22,Susan's,,Click on the girl that has three of Susan's oranges,1,3_apples,girl,2_pears,3_oranges,2_bananas,1_apple,1_orange,boy,boy,girl,,,,,,,,girl with the oranges.,4532,fruit,big,,3,9,,girl,,3_oranges,12,,girl,1,1,noDet,1
314,32,List1,Exp,,BoyThreeMichaelErasers,,1,7,num,,AOI2,AOI8,three,,27,44-22,Michael's,,Click on the boy that has three of Michael's erasers,1,2_rulers,girl,3_erasers,2_scissors,3_pencils,1_pencil,1_eraser,boy,boy,girl,,,,,,,,boy with the erasers.,5041,stationeries,big,,2,8,,boy,,3_erasers,13,,boy,1,1,noDet,1
315,32,List1,Exp,,GirlAllAmySpoons,,4,10,all,,AOI3,AOI9,all,,36,44-22,Amy's,,Click on the girl that has all of Amy's spoons,1,3_plates,girl,2_knives,2_spoons,3_forks,1_plate,1_fork,boy,boy,girl,,,,,,,,girl with the spoons.,5029,kitchenwares,small,,3,9,,girl,,2_spoons,14,,girl,1,1,noDet,1
316,32,List1,Exp,,GirlAllSusanBananas,,4,10,all,,AOI3,AOI9,all,,4,33-33,Susan's,,Click on the girl that has all of Susan's bananas,1,2_pears,girl,3_apples,3_bananas,2_oranges,1_orange,1_pear,boy,boy,girl,,,,,,,,girl with the bananas.,7132,fruit,big,,3,9,,girl,,3_bananas,15,,girl,1,1,noDet,1
317,32,List1,Exp,,GirlSomeSusanBananas,,3,9,some,,AOI4,AOI10,some,,19,44-22,Susan's,,Click on the girl that has some of Susan's bananas,1,3_oranges,girl,2_apples,2_pears,3_bananas,1_banana,1_orange,boy,boy,girl,,,,,,,,girl with the bananas.,5490,fruit,big,,4,10,,girl,,3_bananas,16,,girl,1,1,noDet,1
318,32,List1,Exp,,GirlSomeAmyPlates,,3,9,some,,AOI4,AOI10,some,,16,33-33,Amy's,,Click on the girl that has some of Amy's plates,1,2_forks,girl,3_knives,3_spoons,2_plates,1_fork,1_plate,boy,boy,girl,,,,,,,,girl with the plates.,5896,kitchenwares,small,,4,10,,girl,,2_plates,17,,girl,1,1,noDet,1
319,32,List1,Exp,,GirlAllMichaelRulers,,3,9,all,,AOI4,AOI10,all,,8,33-33,Michael's,,Click on the girl that has all of Michael's rulers,1,2_scissors,girl,3_pencils,2_erasers,3_rulers,1_eraser,1_scissor,boy,boy,girl,,,,,,,,girl with the rulers.,5501,stationeries,big,,4,10,,girl,,3_rulers,18,,girl,1,1,noDet,1
320,32,List1,Exp,,BoyAllAmyForks,,1,7,all,,AOI2,AOI8,all,,17,33-33,Amy's,,Click on the boy that has all of Amy's forks,1,2_spoons,girl,3_forks,2_knives,3_plates,1_spoon,1_knife,boy,boy,girl,,,,,,,,boy with the forks.,4916,kitchenwares,big,,2,8,,boy,,3_forks,19,,boy,1,1,noDet,1
321,32,List1,Exp,,BoyTwoMichaelPencils,,1,7,num,,AOI2,AOI8,two,,28,44-22,Michael's,,Click on the boy that has two of Michael's pencils,1,3_scissors,girl,2_pencils,2_erasers,3_rulers,1_ruler,1_scissor,boy,boy,girl,,,,,,,,boy with the pencils.,6097,stationeries,small,,2,8,,boy,,2_pencils,20,,boy,1,1,noDet,1
322,32,List1,Exp,,BoySomeMichaelScissors,,1,7,some,,AOI2,AOI8,some,,12,33-33,Michael's,,Click on the boy that has some of Michael's scissors,1,3_rulers,girl,2_scissors,2_pencils,3_erasers,1_pencil,1_scissor,boy,boy,girl,,,,,,,,boy with the scissors.,6604,stationeries,small,,2,8,,boy,,2_scissors,21,,boy,1,1,noDet,1
323,32,List1,Exp,,GirlAllMichaelErasers,,4,10,all,,AOI3,AOI9,all,,26,44-22,Michael's,,Click on the girl that has all of Michael's erasers,1,3_pencils,girl,2_scissors,2_erasers,3_rulers,1_pencil,1_ruler,boy,boy,girl,,,,,,,,girl with the erasers.,7155,stationeries,small,,3,9,,girl,,2_erasers,22,,girl,1,1,noDet,1
324,32,List1,Exp,,BoyTwoSusanApples,,2,8,num,,AOI1,AOI7,two,,24,44-22,Susan's,,Click on the boy that has two of Susan's apples,1,2_apples,girl,3_pears,3_bananas,2_oranges,1_banana,1_pear,boy,boy,girl,,,,,,,,boy with the apples.,5885,fruit,small,,1,7,,boy,,2_apples,23,,boy,1,1,noDet,1
325,32,List1,Exp,,GirlSomeAmyKnives,,4,10,some,,AOI3,AOI9,some,,15,33-33,Amy's,,Click on the girl that has some of Amy's knives,1,2_spoons,girl,3_plates,2_knives,3_forks,1_spoon,1_knife,boy,boy,girl,,,,,,,,girl with the knives.,6175,kitchenwares,small,,3,9,,girl,,2_knives,24,,girl,1,1,noDet,1
326,32,List1,Exp,,BoySomeMichaelErasers,,2,8,some,,AOI1,AOI7,some,,11,33-33,Michael's,,Click on the boy that has some of Michael's erasers,1,2_erasers,girl,3_pencils,2_rulers,3_scissors,1_ruler,1_eraser,boy,boy,girl,,,,,,,,boy with the erasers.,5793,stationeries,small,,1,7,,boy,,2_erasers,25,,boy,1,1,noDet,1
327,32,List1,Filler,,BoyFourSusanBananas,,1,7,four,,AOI2,AOI8,four,,44,44-22,Susan's,,Click on the boy that has four of Susan's bananas,1,1_orange,girl,4_bananas,3_pears,2_apples,1_orange,1_pear,boy,boy,girl,,,,,,,,boy with the bananas.,4154,fruit,big,,2,8,,boy,,4_bananas,26,,boy,1,1,noDet,1
328,32,List1,Filler,,GirlFourMichaelPencils,,3,9,four,,AOI4,AOI10,four,,48,44-22,Michael's,,Click on the girl that has four of Michael's pencils,1,1_ruler,girl,2_erasers,3_scissors,4_pencils,1_ruler,1_scissor,boy,boy,girl,,,,,,,,girl with the pencils.,4769,stationeries,big,,4,10,,girl,,4_pencils,27,,girl,1,1,noDet,1
329,32,List1,Exp,,GirlSomeSusanApples,,4,10,some,,AOI3,AOI9,some,,20,44-22,Susan's,,Click on the girl that has some of Susan's apples,1,3_pears,girl,2_bananas,3_apples,2_oranges,1_apple,1_pear,boy,boy,girl,,,,,,,,girl with the apples.,5445,fruit,big,,3,9,,girl,,3_apples,28,,girl,1,1,noDet,1
330,32,List1,Filler,,BoyOneMichaelRulers,,1,7,one,,AOI2,AOI8,one,,40,33-33,Michael's,,Click on the boy that has one of Michael's rulers,1,3_erasers,girl,1_ruler,3_pencils,3_scissors,2_scissors,0,boy,boy,girl,,,,,,,,boy with the ruler.,5423,stationeries,small,,2,8,,boy,,1_ruler,29,,boy,1,1,noDet,1
331,32,List1,Filler,,BoyOneAmyPlates,,2,8,one,,AOI1,AOI7,one,,38,33-33,Amy's,,Click on the boy that has one of Amy's plates,1,1_plate,girl,3_knives,3_forks,3_spoons,2_plates,0,boy,boy,girl,,,,,,,,boy with the plate.,6828,kitchenwares,small,,1,7,,boy,,1_plate,30,,boy,1,1,noDet,1
332,32,List1,Filler,,BoyOneAmySpoons,,1,7,one,,AOI2,AOI8,one,,39,33-33,Amy's,,Click on the boy that has one of Amy's spoons,1,3_forks,girl,1_spoon,3_plates,3_knives,2_spoons,0,boy,boy,girl,,,,,,,,boy with the spoon.,5445,kitchenwares,small,,2,8,,boy,,1_spoon,31,,boy,1,1,noDet,1
333,32,List1,Exp,,GirlSomeMichaelRulers,,3,9,some,,AOI4,AOI10,some,,30,44-22,Michael's,,Click on the girl that has some of Michael's rulers,1,3_erasers,girl,2_pencils,2_scissors,3_rulers,1_ruler,1_eraser,boy,boy,girl,,,,,,,,girl with the rulers.,5468,stationeries,big,,4,10,,girl,,3_rulers,32,,girl,1,1,noDet,1
