workerid,proliferate.condition,big_filler,cond,instruction,loc_big_filler,loc_contrast,loc_small_filler,loc_target_pic,modifier,modifier_use,noun,pragContext,response,response_times,small_filler,target_contrast_bad,target_contrast_good,target_pic,trial,trialID,trialType,trial_number,catch_trials,subject_information.age,subject_information.asses,subject_information.comments,subject_information.education,subject_information.enjoyment,subject_information.fairprice,subject_information.gender,subject_information.language,subject_information.problems,system.Browser,system.OS,system.screenH,system.screenW,time_in_minutes,error
470,List2,measuringtape_big.jpg,semantic_contrast,Click on the open box,.loc2,.loc1,.loc4,.loc3,open,modifier,box,good,"['loc4', 'loc3', 'loc3']","[6927, 8774, 10703]",screw_small.jpg,skeleton.jpg,box_closed.jpg,box_open.jpg,168,filler48,filler,3,[],34,Yes,No comment.,2,2,5.00,Female,English,No problems.,Firefox,Windows,768,1366,30.312683333333332,
470,List2,spring_big.jpg,semantic_contrast,Click on the rubber duck,.loc2,.loc1,.loc4,.loc3,rubber,modifier,duck,good,"['loc2', 'loc3', 'loc3']","[3150, 4550, 5054]",parsley_small.jpg,nailclippers.jpg,duck_plush.jpg,duck_rubber.jpg,152,filler32,filler,4,[],34,Yes,No comment.,2,2,5.00,Female,English,No problems.,Firefox,Windows,768,1366,30.312683333333332,
470,List2,milkshake_big.jpg,contrast,Click on the big turtle,.loc1,.loc3,.loc2,.loc4,big,modifier,turtle,good,"['loc1', 'loc4', 'loc4']","[1999, 3759, 4311]",baseballglove_small.jpg,turtle_small.jpg,turtle_small.jpg,turtle_big.jpg,12,test12,test,5,[],34,Yes,No comment.,2,2,5.00,Female,English,No problems.,Firefox,Windows,768,1366,30.312683333333332,
470,List2,pen_green.jpg,semantic_control,Click on the lollipops,.loc3,.loc4,.loc2,.loc1,big,no_modifier,lollipops,good,"['loc2', 'loc1']","[5680, 6976]",pen_black.jpg,lollipops_small.jpg,pitchfork_small.jpg,lollipops_big.jpg,275,filler155,filler,6,[],34,Yes,No comment.,2,2,5.00,Female,English,No problems.,Firefox,Windows,768,1366,30.312683333333332,
470,List2,train_big.jpg,no_contrast,Click on the cherry,.loc2,.loc1,.loc4,.loc3,small,no_modifier,cherry,good,"['loc2', 'loc3']","[3136, 4216]",jetski_small.jpg,cherry_big.jpg,briefcase_big.jpg,cherry_small.jpg,85,train45,train,7,[],34,Yes,No comment.,2,2,5.00,Female,English,No problems.,Firefox,Windows,768,1366,30.312683333333332,
470,List2,anchor_big.jpg,contrast_control,Click on the bill,.loc2,.loc4,.loc3,.loc1,big,no_modifier,bill,good,"['loc3', 'loc1']","[6192, 7239]",anchor_small.jpg,bill_small.jpg,babycup_small.jpg,bill_big.jpg,213,filler93,filler,8,[],34,Yes,No comment.,2,2,5.00,Female,English,No problems.,Firefox,Windows,768,1366,30.312683333333332,
470,List2,tractor_big.jpg,contrast,Click on the big dress,.loc2,.loc1,.loc3,.loc4,big,modifier,dress,good,"['loc2', 'loc4', 'loc4']","[53863, 55256, 55913]",nest_small.jpg,dress_small.jpg,dress_small.jpg,dress_big.jpg,6,test6,test,9,[],34,Yes,No comment.,2,2,5.00,Female,English,No problems.,Firefox,Windows,768,1366,30.312683333333332,
470,List2,crutches_big.jpg,semantic_contrast,Click on the round tupperware,.loc1,.loc4,.loc2,.loc3,round,modifier,tupperware,good,"['loc2', 'loc3', 'loc3']","[2077, 3310, 3694]",powder_small.jpg,rockingchair.jpg,tupperware_rectangular.jpg,tupperware_round.jpg,162,filler42,filler,10,[],34,Yes,No comment.,2,2,5.00,Female,English,No problems.,Firefox,Windows,768,1366,30.312683333333332,
470,List2,orangephone_big.jpg,contrast,Click on the small guitar,.loc4,.loc1,.loc2,.loc3,small,modifier,guitar,good,"['loc2', 'loc3', 'loc3']","[5984, 7440, 7856]",pie_small.jpg,guitar_big.jpg,guitar_big.jpg,guitar_small.jpg,16,test16,test,11,[],34,Yes,No comment.,2,2,5.00,Female,English,No problems.,Firefox,Windows,768,1366,30.312683333333332,
470,List2,laptop_big.jpg,contrast,Click on the big starfish,.loc2,.loc4,.loc3,.loc1,big,modifier,starfish,good,"['loc2', 'loc1', 'loc1']","[4215, 5703, 6079]",toyoctopus_small.jpg,starfish_small.jpg,starfish_small.jpg,starfish_big.jpg,15,test15,test,12,[],34,Yes,No comment.,2,2,5.00,Female,English,No problems.,Firefox,Windows,768,1366,30.312683333333332,
470,List2,ostrich_big.jpg,no_contrast,Click on the buffalo,.loc4,.loc2,.loc3,.loc1,big,no_modifier,buffalo,good,"['loc4', 'loc1']","[2991, 3999]",potato_small.jpg,buffalo_small.jpg,mask_small.jpg,buffalo_big.jpg,82,train42,train,13,[],34,Yes,No comment.,2,2,5.00,Female,English,No problems.,Firefox,Windows,768,1366,30.312683333333332,
470,List2,pearls_big.jpg,contrast_control,Click on the trophy,.loc3,.loc1,.loc2,.loc4,small,no_modifier,trophy,good,"['loc1', 'loc4']","[1919, 3600]",pearls_small.jpg,trophy_big.jpg,toyfarm_big.jpg,trophy_small.jpg,190,filler70,filler,14,[],34,Yes,No comment.,2,2,5.00,Female,English,No problems.,Firefox,Windows,768,1366,30.312683333333332,
470,List2,floppy_big.jpg,contrast_control,Click on the mug,.loc3,.loc2,.loc1,.loc4,big,no_modifier,mug,good,"['loc1', 'loc4']","[2248, 3296]",floppy_small.jpg,mug_small.jpg,compass_small.jpg,mug_big.jpg,193,filler73,filler,15,[],34,Yes,No comment.,2,2,5.00,Female,English,No problems.,Firefox,Windows,768,1366,30.312683333333332,
470,List2,fireextinguisher_big.jpg,contrast_control,Click on the fountain,.loc3,.loc1,.loc4,.loc2,small,no_modifier,fountain,good,"['loc1', 'loc2']","[3240, 4392]",fireextinguisher_small.jpg,fountain_big.jpg,eiffeltower_big.jpg,fountain_small.jpg,234,filler114,filler,16,[],34,Yes,No comment.,2,2,5.00,Female,English,No problems.,Firefox,Windows,768,1366,30.312683333333332,
470,List2,funnel_big.jpg,no_contrast,Click on the small icecream,.loc3,.loc2,.loc1,.loc4,small,modifier,icecream,good,"['loc2', 'loc1', 'loc4']","[4633, 10873, 12359]",pizza_small.jpg,orange_big.jpg,orange_big.jpg,icecream_small.jpg,28,test28,test,17,[],34,Yes,No comment.,2,2,5.00,Female,English,No problems.,Firefox,Windows,768,1366,30.312683333333332,
470,List2,spraybottle_orange.jpg,semantic_control,Click on the kazoo,.loc4,.loc3,.loc1,.loc2,small,no_modifier,kazoo,good,"['loc4', 'loc2']","[4921, 6112]",spraybottle_blue.jpg,kazoo_big.jpg,babyswing_big.jpg,kazoo_small.jpg,252,filler132,filler,18,[],34,Yes,No comment.,2,2,5.00,Female,English,No problems.,Firefox,Windows,768,1366,30.312683333333332,
470,List2,measuringtape_black.jpg,semantic_control,Click on the lighthouse,.loc1,.loc3,.loc4,.loc2,small,no_modifier,lighthouse,good,"['loc4', 'loc2']","[3591, 4503]",measuringtape_orange.jpg,lighthouse_big.jpg,batteries_big.jpg,lighthouse_small.jpg,254,filler134,filler,19,[],34,Yes,No comment.,2,2,5.00,Female,English,No problems.,Firefox,Windows,768,1366,30.312683333333332,
470,List2,babyswing_big.jpg,semantic_contrast,Click on the green bellpeppers,.loc2,.loc1,.loc3,.loc4,green,modifier,bellpeppers,good,"['loc2', 'loc4', 'loc4']","[9335, 10296, 10704]",redkettle_small.jpg,dogbones.jpg,bellpeppers_red.jpg,bellpeppers_green.jpg,131,filler11,filler,20,[],34,Yes,No comment.,2,2,5.00,Female,English,No problems.,Firefox,Windows,768,1366,30.312683333333332,
470,List2,crown_big.jpg,contrast,Click on the small mask,.loc1,.loc3,.loc2,.loc4,small,modifier,mask,good,"['loc1', 'loc4', 'loc4']","[8383, 9600, 9807]",brain_small.jpg,holepunch_big.jpg,mask_big.jpg,mask_small.jpg,42,train2,train,21,[],34,Yes,No comment.,2,2,5.00,Female,English,No problems.,Firefox,Windows,768,1366,30.312683333333332,
470,List2,hippo_big.jpg,contrast,Click on the big house,.loc4,.loc1,.loc2,.loc3,big,modifier,house,good,"['loc4', 'loc3', 'loc3']","[5776, 7096, 7552]",candle_small.jpg,antelope_small.jpg,house_small.jpg,house_big.jpg,57,train17,train,22,[],34,Yes,No comment.,2,2,5.00,Female,English,No problems.,Firefox,Windows,768,1366,30.312683333333332,
470,List2,veggieplatter_big.jpg,no_contrast,Click on the small cat,.loc3,.loc2,.loc4,.loc1,small,modifier,cat,good,"['loc1', 'loc4', 'loc1']","[6455, 8415, 9888]",recliner_small.jpg,turtle_big.jpg,turtle_big.jpg,cat_small.jpg,32,test32,test,23,[],34,Yes,No comment.,2,2,5.00,Female,English,No problems.,Firefox,Windows,768,1366,30.312683333333332,
470,List2,accordion_big.jpg,contrast_control,Click on the lizard,.loc3,.loc1,.loc2,.loc4,big,no_modifier,lizard,good,"['loc4', 'loc4']","[5663, 6503]",accordion_small.jpg,lizard_small.jpg,chowchow_small.jpg,lizard_big.jpg,225,filler105,filler,24,[],34,Yes,No comment.,2,2,5.00,Female,English,No problems.,Firefox,Windows,768,1366,30.312683333333332,
470,List2,duster_pink.jpg,semantic_control,Click on the gumballmachine,.loc1,.loc4,.loc2,.loc3,big,no_modifier,gumballmachine,good,"['loc2', 'loc3']","[10911, 12383]",duster_turquoise.jpg,gumballmachine_small.jpg,paintroller_small.jpg,gumballmachine_big.jpg,267,filler147,filler,25,[],34,Yes,No comment.,2,2,5.00,Female,English,No problems.,Firefox,Windows,768,1366,30.312683333333332,
470,List2,bone_big.jpg,contrast,Click on the small pencil,.loc2,.loc4,.loc1,.loc3,small,modifier,pencil,good,"['loc2', 'loc3', 'loc3']","[6032, 7376, 7968]",screwdriver_small.jpg,pencil_big.jpg,pencil_big.jpg,pencil_small.jpg,3,test3,test,26,[],34,Yes,No comment.,2,2,5.00,Female,English,No problems.,Firefox,Windows,768,1366,30.312683333333332,
470,List2,seal_red.jpg,semantic_control,Click on the motorcycle,.loc1,.loc4,.loc2,.loc3,small,no_modifier,motorcycle,good,"['loc4', 'loc3']","[10840, 11968]",seal_green.jpg,motorcycle_big.jpg,fortunecookie_big.jpg,motorcycle_small.jpg,264,filler144,filler,27,[],34,Yes,No comment.,2,2,5.00,Female,English,No problems.,Firefox,Windows,768,1366,30.312683333333332,
470,List2,scooter_big.jpg,semantic_contrast,Click on the pink cooler,.loc1,.loc2,.loc4,.loc3,pink,modifier,cooler,good,"['loc2', 'loc3', 'loc3']","[5088, 6031, 6248]",pepperoni_small.jpg,rainboots.jpg,cooler_blue.jpg,cooler_pink.jpg,154,filler34,filler,28,[],34,Yes,No comment.,2,2,5.00,Female,English,No problems.,Firefox,Windows,768,1366,30.312683333333332,
470,List2,cheeseplate_big.jpg,semantic_contrast,Click on the yellow plate,.loc3,.loc2,.loc1,.loc4,yellow,modifier,plate,good,"['loc1', 'loc4', 'loc4']","[1608, 2456, 2672]",kooshball_small.jpg,legoblocks.jpg,plate_blue.jpg,plate_yellow.jpg,179,filler59,filler,29,[],34,Yes,No comment.,2,2,5.00,Female,English,No problems.,Firefox,Windows,768,1366,30.312683333333332,
470,List2,panda_big.jpg,contrast,Click on the big paperbag,.loc3,.loc4,.loc1,.loc2,big,modifier,paperbag,good,"['loc1', 'loc2', 'loc2']","[1744, 2759, 2959]",gong_small.jpg,pencilsharpener_small.jpg,paperbag_small.jpg,paperbag_big.jpg,41,train1,train,30,[],34,Yes,No comment.,2,2,5.00,Female,English,No problems.,Firefox,Windows,768,1366,30.312683333333332,
470,List2,bathtub_big.jpg,contrast,Click on the big mushroom,.loc4,.loc3,.loc1,.loc2,big,modifier,mushroom,good,"['loc1', 'loc2', 'loc2']","[1080, 1816, 2017]",sushi_small.jpg,teeth_small.jpg,mushroom_small.jpg,mushroom_big.jpg,65,train25,train,31,[],34,Yes,No comment.,2,2,5.00,Female,English,No problems.,Firefox,Windows,768,1366,30.312683333333332,
470,List2,goose_big.jpg,no_contrast,Click on the paintbrush,.loc2,.loc3,.loc1,.loc4,big,no_modifier,paintbrush,good,"['loc2', 'loc4']","[1304, 2328]",parrot_small.jpg,paintbrush_small.jpg,boat_small.jpg,paintbrush_big.jpg,114,train74,train,32,[],34,Yes,No comment.,2,2,5.00,Female,English,No problems.,Firefox,Windows,768,1366,30.312683333333332,
470,List2,gumballmachine_big.jpg,no_contrast,Click on the discoball,.loc2,.loc1,.loc4,.loc3,small,no_modifier,discoball,good,"['loc4', 'loc3']","[1064, 2344]",chowchow_small.jpg,discoball_big.jpg,beetle_big.jpg,discoball_small.jpg,87,train47,train,33,[],34,Yes,No comment.,2,2,5.00,Female,English,No problems.,Firefox,Windows,768,1366,30.312683333333332,
470,List2,oars_big.jpg,no_contrast,Click on the sardines,.loc3,.loc1,.loc2,.loc4,big,no_modifier,sardines,good,"['loc3', 'loc2']","[2695, 4184]",couch_small.jpg,sardines_small.jpg,football_small.jpg,sardines_big.jpg,120,train80,train,34,[],34,Yes,No comment.,2,2,5.00,Female,English,No problems.,Firefox,Windows,768,1366,30.312683333333332,
470,List2,stroller_big.jpg,contrast,Click on the small drum,.loc4,.loc1,.loc2,.loc3,small,modifier,drum,good,"['loc2', 'loc3', 'loc3']","[4744, 6304, 6864]",doll_small.jpg,floppydiscs_big.jpg,drum_big.jpg,drum_small.jpg,52,train12,train,35,[],34,Yes,No comment.,2,2,5.00,Female,English,No problems.,Firefox,Windows,768,1366,30.312683333333332,
470,List2,jetski_big.jpg,contrast_control,Click on the sneaker,.loc2,.loc4,.loc3,.loc1,small,no_modifier,sneaker,good,"['loc4', 'loc1']","[2704, 3544]",jetski_small.jpg,sneaker_big.jpg,orangephone_big.jpg,sneaker_small.jpg,198,filler78,filler,36,[],34,Yes,No comment.,2,2,5.00,Female,English,No problems.,Firefox,Windows,768,1366,30.312683333333332,
470,List2,glasses_tortoise.jpg,semantic_control,Click on the couch,.loc4,.loc1,.loc2,.loc3,small,no_modifier,couch,good,"['loc3', 'loc3']","[2783, 3695]",glasses_blue.jpg,couch_big.jpg,cheeseplate_big.jpg,couch_small.jpg,300,filler180,filler,37,[],34,Yes,No comment.,2,2,5.00,Female,English,No problems.,Firefox,Windows,768,1366,30.312683333333332,
470,List2,skateboard_stripes.jpg,semantic_control,Click on the parrot,.loc4,.loc2,.loc1,.loc3,small,no_modifier,parrot,good,"['loc3', 'loc3']","[3728, 4328]",skateboard_checkers.jpg,parrot_big.jpg,babybottle_big.jpg,parrot_small.jpg,294,filler174,filler,38,[],34,Yes,No comment.,2,2,5.00,Female,English,No problems.,Firefox,Windows,768,1366,30.312683333333332,
470,List2,postits_big.jpg,semantic_contrast,Click on the plastic fork,.loc1,.loc3,.loc4,.loc2,plastic,modifier,fork,good,"['loc4', 'loc2', 'loc2']","[4487, 5896, 6359]",rockclimbingshoe_small.jpg,salami.jpg,fork_silver.jpg,fork_plastic.jpg,165,filler45,filler,39,[],34,Yes,No comment.,2,2,5.00,Female,English,No problems.,Firefox,Windows,768,1366,30.312683333333332,
470,List2,sandwich_big.jpg,contrast,Click on the small camel,.loc4,.loc1,.loc3,.loc2,small,modifier,camel,good,"['loc4', 'loc2', 'loc2']","[4032, 6199, 8167]",castle_small.jpg,lacrosse_big.jpg,camel_big.jpg,camel_small.jpg,66,train26,train,40,[],34,Yes,No comment.,2,2,5.00,Female,English,No problems.,Firefox,Windows,768,1366,30.312683333333332,
470,List2,clock_cuckoo.jpg,semantic_control,Click on the sheep,.loc2,.loc1,.loc4,.loc3,small,no_modifier,sheep,good,"['loc1', 'loc3']","[5680, 6560]",clock_grandfather.jpg,sheep_big.jpg,payphone_big.jpg,sheep_small.jpg,288,filler168,filler,41,[],34,Yes,No comment.,2,2,5.00,Female,English,No problems.,Firefox,Windows,768,1366,30.312683333333332,
470,List2,ostrich_big.jpg,contrast_control,Click on the sponge,.loc3,.loc4,.loc1,.loc2,big,no_modifier,sponge,good,"['loc2', 'loc2']","[3647, 4335]",ostrich_small.jpg,sponge_small.jpg,shears_small.jpg,sponge_big.jpg,199,filler79,filler,42,[],34,Yes,No comment.,2,2,5.00,Female,English,No problems.,Firefox,Windows,768,1366,30.312683333333332,
470,List2,saltpepper_big.jpg,semantic_contrast,Click on the red pin,.loc4,.loc1,.loc3,.loc2,red,modifier,pin,good,"['loc1', 'loc2', 'loc2']","[8048, 8944, 9328]",pitabread_small.jpg,orca.jpg,pin_yellow.jpg,pin_red.jpg,153,filler33,filler,43,[],34,Yes,No comment.,2,2,5.00,Female,English,No problems.,Firefox,Windows,768,1366,30.312683333333332,
470,List2,hawaiianshirt_red.jpg,semantic_control,Click on the scrunchie,.loc1,.loc4,.loc2,.loc3,small,no_modifier,scrunchie,good,"['loc2', 'loc3']","[3375, 4392]",hawaiianshirt_blue.jpg,scrunchie_big.jpg,celery_big.jpg,scrunchie_small.jpg,260,filler140,filler,44,[],34,Yes,No comment.,2,2,5.00,Female,English,No problems.,Firefox,Windows,768,1366,30.312683333333332,
470,List2,woodperson_big.jpg,semantic_contrast,Click on the nuts chocolatebar,.loc1,.loc2,.loc4,.loc3,nuts,modifier,chocolatebar,good,"['loc4', 'loc3', 'loc3']","[6911, 8271, 8976]",joystick_small.jpg,constructionhelmet.jpg,chocolatebar_nonuts.jpg,chocolatebar_nuts.jpg,129,filler9,filler,45,[],34,Yes,No comment.,2,2,5.00,Female,English,No problems.,Firefox,Windows,768,1366,30.312683333333332,
470,List2,cucumber_big.jpg,contrast,Click on the big bat,.loc4,.loc3,.loc2,.loc1,big,modifier,bat,good,"['loc1', 'loc1', 'loc1']","[2575, 3168, 4799]",sewingmachine_big.jpg,paintcan_small.jpg,bat_small.jpg,bat_big.jpg,69,train29,train,46,[],34,Yes,No comment.,2,2,5.00,Female,English,No problems.,Firefox,Windows,768,1366,30.312683333333332,
470,List2,tank_big.jpg,semantic_contrast,Click on the open book,.loc3,.loc4,.loc2,.loc1,open,modifier,book,good,"['loc1', 'loc1', 'loc1']","[7352, 7872, 8568]",thermometer_small.jpg,groundhog.jpg,book_closed.jpg,book_open.jpg,145,filler25,filler,47,[],34,Yes,No comment.,2,2,5.00,Female,English,No problems.,Firefox,Windows,768,1366,30.312683333333332,
470,List2,tweezers_big.jpg,semantic_contrast,Click on the green mixer,.loc3,.loc1,.loc2,.loc4,green,modifier,mixer,good,"['loc3', 'loc4', 'loc4']","[4304, 5552, 5976]",skirt_small.jpg,spiderweb.jpg,mixer_red.jpg,mixer_green.jpg,172,filler52,filler,48,[],34,Yes,No comment.,2,2,5.00,Female,English,No problems.,Firefox,Windows,768,1366,30.312683333333332,
470,List2,asparagus_big.jpg,no_contrast,Click on the triangle,.loc3,.loc4,.loc2,.loc1,small,no_modifier,triangle,good,"['loc4', 'loc1']","[3391, 4608]",leash_small.jpg,triangle_big.jpg,yarn_big.jpg,triangle_small.jpg,107,train67,train,49,[],34,Yes,No comment.,2,2,5.00,Female,English,No problems.,Firefox,Windows,768,1366,30.312683333333332,
470,List2,coconut_big.jpg,contrast_control,Click on the piano,.loc4,.loc1,.loc2,.loc3,big,no_modifier,piano,good,"['loc2', 'loc3']","[1864, 2848]",coconut_small.jpg,piano_small.jpg,paperclips_small.jpg,piano_big.jpg,187,filler67,filler,50,[],34,Yes,No comment.,2,2,5.00,Female,English,No problems.,Firefox,Windows,768,1366,30.312683333333332,
470,List2,rollerblades_big.jpg,contrast_control,Click on the doll,.loc4,.loc1,.loc3,.loc2,small,no_modifier,doll,good,"['loc1', 'loc2']","[3311, 4255]",rollerblades_small.jpg,doll_big.jpg,ring_big.jpg,doll_small.jpg,232,filler112,filler,51,[],34,Yes,No comment.,2,2,5.00,Female,English,No problems.,Firefox,Windows,768,1366,30.312683333333332,
470,List2,handcuffs_big.jpg,semantic_contrast,Click on the whole lemon,.loc4,.loc3,.loc2,.loc1,whole,modifier,lemon,good,"['loc4', 'loc1', 'loc1']","[2816, 3857, 4256]",shelf_small.jpg,skydive.jpg,lemon_half.jpg,lemon_whole.jpg,170,filler50,filler,52,[],34,Yes,No comment.,2,2,5.00,Female,English,No problems.,Firefox,Windows,768,1366,30.312683333333332,
470,List2,neckpillow_pink.jpg,semantic_control,Click on the bowlingball,.loc3,.loc2,.loc1,.loc4,small,no_modifier,bowlingball,good,"['loc4', 'loc4']","[1633, 2552]",neckpillow_purple.jpg,bowlingball_big.jpg,helicopter_big.jpg,bowlingball_small.jpg,266,filler146,filler,53,[],34,Yes,No comment.,2,2,5.00,Female,English,No problems.,Firefox,Windows,768,1366,30.312683333333332,
470,List2,toydrill_big.jpg,semantic_contrast,Click on the strawberry icecream,.loc4,.loc1,.loc2,.loc3,strawberry,modifier,icecream,good,"['loc2', 'loc3', 'loc3']","[1320, 2440, 2784]",headlights_small.jpg,seagull.jpg,icecream_vanilla.jpg,icecream_strawberry.jpg,122,filler2,filler,54,[],34,Yes,No comment.,2,2,5.00,Female,English,No problems.,Firefox,Windows,768,1366,30.312683333333332,
470,List2,window_big.jpg,no_contrast,Click on the saxophone,.loc4,.loc2,.loc3,.loc1,small,no_modifier,saxophone,good,"['loc2', 'loc2']","[5775, 6318]",pearls_small.jpg,saxophone_big.jpg,alarmclock_big.jpg,saxophone_small.jpg,101,train61,train,55,[],34,Yes,No comment.,2,2,5.00,Female,English,No problems.,Firefox,Windows,768,1366,30.312683333333332,
470,List2,toyfarm_big.jpg,no_contrast,Click on the big ribbon,.loc2,.loc3,.loc1,.loc4,big,modifier,ribbon,good,"['loc3', 'loc4', 'loc4']","[8272, 12545, 13817]",tissues_small.jpg,bell_small.jpg,bell_small.jpg,ribbon_big.jpg,40,test40,test,56,[],34,Yes,No comment.,2,2,5.00,Female,English,No problems.,Firefox,Windows,768,1366,30.312683333333332,
470,List2,hourglass_big.jpg,contrast_control,Click on the bucket,.loc4,.loc2,.loc3,.loc1,small,no_modifier,bucket,good,"['loc2', 'loc1']","[4734, 5993]",hourglass_small.jpg,bucket_big.jpg,ladybug_big.jpg,bucket_small.jpg,196,filler76,filler,57,[],34,Yes,No comment.,2,2,5.00,Female,English,No problems.,Firefox,Windows,768,1366,30.312683333333332,
470,List2,brochette_big.jpg,contrast,Click on the small necklace,.loc3,.loc1,.loc2,.loc4,small,modifier,necklace,good,"['loc2', 'loc4', 'loc4']","[5189, 6894, 8405]",kazoo_small.jpg,matzah_big.jpg,necklace_big.jpg,necklace_small.jpg,72,train32,train,58,[],34,Yes,No comment.,2,2,5.00,Female,English,No problems.,Firefox,Windows,768,1366,30.312683333333332,
470,List2,chick_big.jpg,no_contrast,Click on the bowlingpin,.loc4,.loc1,.loc3,.loc2,big,no_modifier,bowlingpin,good,"['loc4', 'loc2']","[3351, 4351]",raspberry_small.jpg,bowlingpin_small.jpg,eagle_small.jpg,bowlingpin_big.jpg,110,train70,train,59,[],34,Yes,No comment.,2,2,5.00,Female,English,No problems.,Firefox,Windows,768,1366,30.312683333333332,
470,List2,grenade_big.jpg,semantic_contrast,Click on the wrapped candy,.loc2,.loc3,.loc1,.loc4,wrapped,modifier,candy,good,"['loc2', 'loc4', 'loc4']","[1216, 2688, 3168]",sandal_small.jpg,seal.jpg,candy_unwrapped.jpg,candy_wrapped.jpg,167,filler47,filler,60,[],34,Yes,No comment.,2,2,5.00,Female,English,No problems.,Firefox,Windows,768,1366,30.312683333333332,
470,List2,legoman_cult.jpg,semantic_control,Click on the horse,.loc2,.loc4,.loc1,.loc3,small,no_modifier,horse,good,"['loc3', 'loc3']","[4239, 4879]",legoman_sailor.jpg,horse_big.jpg,bobcat_big.jpg,horse_small.jpg,250,filler130,filler,61,[],34,Yes,No comment.,2,2,5.00,Female,English,No problems.,Firefox,Windows,768,1366,30.312683333333332,
470,List2,garlicpress_blue.jpg,semantic_control,Click on the sock,.loc2,.loc3,.loc1,.loc4,big,no_modifier,sock,good,"['loc3', 'loc4']","[3823, 4935]",garlicpress_red.jpg,sock_small.jpg,redbean_small.jpg,sock_big.jpg,279,filler159,filler,62,[],34,Yes,No comment.,2,2,5.00,Female,English,No problems.,Firefox,Windows,768,1366,30.312683333333332,
470,List2,lawnmower_big.jpg,semantic_contrast,Click on the glass bottle,.loc3,.loc4,.loc1,.loc2,glass,modifier,bottle,good,"['loc1', 'loc2', 'loc2']","[8879, 10567, 11007]",paintroller_small.jpg,gardeningpail.jpg,bottle_plastic.jpg,bottle_glass.jpg,150,filler30,filler,63,[],34,Yes,No comment.,2,2,5.00,Female,English,No problems.,Firefox,Windows,768,1366,30.312683333333332,
470,List2,pretzel_knot.jpg,semantic_control,Click on the waffle,.loc3,.loc2,.loc4,.loc1,small,no_modifier,waffle,good,"['loc2', 'loc1']","[2737, 3816]",pretzel_sticks.jpg,waffle_big.jpg,exerciseball_big.jpg,waffle_small.jpg,282,filler162,filler,64,[],34,Yes,No comment.,2,2,5.00,Female,English,No problems.,Firefox,Windows,768,1366,30.312683333333332,
470,List2,exercisebike_big.jpg,semantic_contrast,Click on the hand mirror,.loc3,.loc2,.loc1,.loc4,hand,modifier,mirror,good,"['loc2', 'loc4', 'loc4']","[4247, 5455, 5791]",mango_small.jpg,goldfish.jpg,mirror_standing.jpg,mirror_hand.jpg,142,filler22,filler,65,[],34,Yes,No comment.,2,2,5.00,Female,English,No problems.,Firefox,Windows,768,1366,30.312683333333332,
470,List2,gardeningpail_big.jpg,contrast_control,Click on the microwave,.loc4,.loc1,.loc3,.loc2,big,no_modifier,microwave,good,"['loc2', 'loc2']","[2095, 2630]",gardeningpail_small.jpg,microwave_small.jpg,wavevase_small.jpg,microwave_big.jpg,195,filler75,filler,66,[],34,Yes,No comment.,2,2,5.00,Female,English,No problems.,Firefox,Windows,768,1366,30.312683333333332,
470,List2,beaver_big.jpg,contrast_control,Click on the suitcase,.loc3,.loc2,.loc1,.loc4,big,no_modifier,suitcase,good,"['loc4', 'loc4']","[2553, 3112]",beaver_small.jpg,suitcase_small.jpg,candyapple_small.jpg,suitcase_big.jpg,211,filler91,filler,67,[],34,Yes,No comment.,2,2,5.00,Female,English,No problems.,Firefox,Windows,768,1366,30.312683333333332,
470,List2,dress_roses.jpg,semantic_control,Click on the asparagus,.loc2,.loc3,.loc1,.loc4,big,no_modifier,asparagus,good,"['loc4', 'loc4']","[3287, 3792]",dress_flowers.jpg,asparagus_small.jpg,thimble_small.jpg,asparagus_big.jpg,287,filler167,filler,68,[],34,Yes,No comment.,2,2,5.00,Female,English,No problems.,Firefox,Windows,768,1366,30.312683333333332,
470,List2,carkeys_big.jpg,semantic_contrast,Click on the coffee cup,.loc3,.loc1,.loc4,.loc2,coffee,modifier,cup,good,"['loc1', 'loc2', 'loc2']","[5431, 6447, 6839]",oven_small.jpg,icecubetray.jpg,cup_plastic.jpg,cup_coffee.jpg,149,filler29,filler,69,[],34,Yes,No comment.,2,2,5.00,Female,English,No problems.,Firefox,Windows,768,1366,30.312683333333332,
470,List2,bobcat_big.jpg,semantic_contrast,Click on the one dollarbills,.loc1,.loc3,.loc2,.loc4,one,modifier,dollarbills,good,"['loc1', 'loc4', 'loc4']","[3832, 4991, 5296]",juicer_small.jpg,daisies.jpg,dollarbills_five.jpg,dollarbills_one.jpg,130,filler10,filler,70,[],34,Yes,No comment.,2,2,5.00,Female,English,No problems.,Firefox,Windows,768,1366,30.312683333333332,
470,List2,helicopter_big.jpg,semantic_contrast,Click on the open backpack,.loc3,.loc1,.loc2,.loc4,open,modifier,backpack,good,"['loc3', 'loc4', 'loc4']","[3271, 4872, 5247]",meat_small.jpg,grater.jpg,backpack_closed.jpg,backpack_open.jpg,144,filler24,filler,71,[],34,Yes,No comment.,2,2,5.00,Female,English,No problems.,Firefox,Windows,768,1366,30.312683333333332,
470,List2,birdhouse_onstand.jpg,semantic_control,Click on the musicsheet,.loc3,.loc2,.loc1,.loc4,big,no_modifier,musicsheet,good,"['loc2', 'loc4']","[3176, 4000]",birdhouse_plain.jpg,musicsheet_small.jpg,screw_small.jpg,musicsheet_big.jpg,299,filler179,filler,72,[],34,Yes,No comment.,2,2,5.00,Female,English,No problems.,Firefox,Windows,768,1366,30.312683333333332,
470,List2,swan_big.jpg,no_contrast,Click on the tie,.loc3,.loc1,.loc2,.loc4,small,no_modifier,tie,good,"['loc1', 'loc4']","[2151, 3239]",cougar_small.jpg,tie_big.jpg,mushroom_big.jpg,tie_small.jpg,105,train65,train,73,[],34,Yes,No comment.,2,2,5.00,Female,English,No problems.,Firefox,Windows,768,1366,30.312683333333332,
470,List2,croissant_big.jpg,no_contrast,Click on the shark,.loc2,.loc3,.loc4,.loc1,big,no_modifier,shark,good,"['loc1', 'loc1']","[2719, 3336]",waffle_small.jpg,shark_small.jpg,domino_small.jpg,shark_big.jpg,102,train62,train,74,[],34,Yes,No comment.,2,2,5.00,Female,English,No problems.,Firefox,Windows,768,1366,30.312683333333332,
470,List2,vacuum_handheld.jpg,semantic_control,Click on the pig,.loc3,.loc1,.loc2,.loc4,big,no_modifier,pig,good,"['loc2', 'loc4']","[4847, 5752]",vacuum_standing.jpg,pig_small.jpg,toytrain_small.jpg,pig_big.jpg,291,filler171,filler,75,[],34,Yes,No comment.,2,2,5.00,Female,English,No problems.,Firefox,Windows,768,1366,30.312683333333332,
470,List2,windmill_big.jpg,no_contrast,Click on the small lobster,.loc2,.loc1,.loc3,.loc4,small,modifier,lobster,good,"['loc4', 'loc4', 'loc4']","[3656, 7823, 9039]",cake_small.jpg,brush_big.jpg,brush_big.jpg,lobster_small.jpg,22,test22,test,76,[],34,Yes,No comment.,2,2,5.00,Female,English,No problems.,Firefox,Windows,768,1366,30.312683333333332,
470,List2,string_jute.jpg,semantic_control,Click on the tank,.loc1,.loc3,.loc4,.loc2,small,no_modifier,tank,good,"['loc2', 'loc2']","[3097, 3808]",string_white.jpg,tank_big.jpg,kimono_big.jpg,tank_small.jpg,270,filler150,filler,77,[],34,Yes,No comment.,2,2,5.00,Female,English,No problems.,Firefox,Windows,768,1366,30.312683333333332,
470,List2,iguana_big.jpg,contrast_control,Click on the firealarm,.loc2,.loc4,.loc1,.loc3,big,no_modifier,firealarm,good,"['loc3', 'loc3']","[2783, 3567]",iguana_small.jpg,firealarm_small.jpg,leash_small.jpg,firealarm_big.jpg,233,filler113,filler,78,[],34,Yes,No comment.,2,2,5.00,Female,English,No problems.,Firefox,Windows,768,1366,30.312683333333332,
470,List2,phone_antique.jpg,semantic_control,Click on the chocolatebar,.loc2,.loc1,.loc3,.loc4,small,no_modifier,chocolatebar,good,"['loc2', 'loc4']","[7137, 8080]",phone_modern.jpg,chocolatebar_big.jpg,scooter_big.jpg,chocolatebar_small.jpg,274,filler154,filler,79,[],34,Yes,No comment.,2,2,5.00,Female,English,No problems.,Firefox,Windows,768,1366,30.312683333333332,
470,List2,telescope_big.jpg,no_contrast,Click on the zebra,.loc2,.loc3,.loc4,.loc1,small,no_modifier,zebra,good,"['loc1', 'loc1']","[2920, 3448]",icecreambar_small.jpg,zebra_big.jpg,bat_big.jpg,zebra_small.jpg,109,train69,train,80,[],34,Yes,No comment.,2,2,5.00,Female,English,No problems.,Firefox,Windows,768,1366,30.312683333333332,
470,List2,gardeningpail_big.jpg,no_contrast,Click on the garbagebin,.loc2,.loc1,.loc3,.loc4,big,no_modifier,garbagebin,good,"['loc4', 'loc4']","[4096, 4785]",tank_small.jpg,garbagebin_small.jpg,saw_small.jpg,garbagebin_big.jpg,90,train50,train,81,[],34,Yes,No comment.,2,2,5.00,Female,English,No problems.,Firefox,Windows,768,1366,30.312683333333332,
470,List2,crown_big.jpg,contrast_control,Click on the desk,.loc1,.loc4,.loc3,.loc2,big,no_modifier,desk,good,"['loc3', 'loc2']","[6352, 7334]",crown_small.jpg,desk_small.jpg,bowlofoatmeal_small.jpg,desk_big.jpg,219,filler99,filler,82,[],34,Yes,No comment.,2,2,5.00,Female,English,No problems.,Firefox,Windows,768,1366,30.312683333333332,
470,List2,ghost_big.jpg,no_contrast,Click on the whistle,.loc4,.loc3,.loc2,.loc1,big,no_modifier,whistle,good,"['loc1', 'loc1']","[14128, 15176]",sheep_small.jpg,whistle_small.jpg,banjo_small.jpg,whistle_big.jpg,108,train68,train,83,[],34,Yes,No comment.,2,2,5.00,Female,English,No problems.,Firefox,Windows,768,1366,30.312683333333332,
470,List2,ring_big.jpg,no_contrast,Click on the lipstick,.loc3,.loc2,.loc1,.loc4,big,no_modifier,lipstick,good,"['loc2', 'loc4']","[4936, 5873]",burrito_small.jpg,lipstick_small.jpg,wheel_small.jpg,lipstick_big.jpg,96,train56,train,84,[],34,Yes,No comment.,2,2,5.00,Female,English,No problems.,Firefox,Windows,768,1366,30.312683333333332,
470,List2,carseat_big.jpg,contrast_control,Click on the flag,.loc3,.loc1,.loc4,.loc2,small,no_modifier,flag,good,"['loc1', 'loc2']","[5327, 6496]",carseat_small.jpg,flag_big.jpg,pooltable_big.jpg,flag_small.jpg,218,filler98,filler,85,[],34,Yes,No comment.,2,2,5.00,Female,English,No problems.,Firefox,Windows,768,1366,30.312683333333332,
470,List2,gummybears_big.jpg,semantic_contrast,Click on the glazed donut,.loc2,.loc3,.loc4,.loc1,glazed,modifier,donut,good,"['loc2', 'loc1', 'loc1']","[5191, 6566, 7071]",organ_small.jpg,lighter.jpg,donut_powdered.jpg,donut_glazed.jpg,148,filler28,filler,86,[],34,Yes,No comment.,2,2,5.00,Female,English,No problems.,Firefox,Windows,768,1366,30.312683333333332,
470,List2,musicsheet_big.jpg,no_contrast,Click on the blackberry,.loc1,.loc4,.loc3,.loc2,small,no_modifier,blackberry,good,"['loc4', 'loc2']","[4407, 5167]",tote_small.jpg,blackberry_big.jpg,hammock_big.jpg,blackberry_small.jpg,119,train79,train,87,[],34,Yes,No comment.,2,2,5.00,Female,English,No problems.,Firefox,Windows,768,1366,30.312683333333332,
470,List2,robot_blue.jpg,semantic_control,Click on the pants,.loc1,.loc3,.loc2,.loc4,big,no_modifier,pants,good,"['loc4', 'loc4']","[2320, 2935]",robot_purple.jpg,pants_small.jpg,parsley_small.jpg,pants_big.jpg,295,filler175,filler,88,[],34,Yes,No comment.,2,2,5.00,Female,English,No problems.,Firefox,Windows,768,1366,30.312683333333332,
470,List2,desk_big.jpg,contrast,Click on the big grapes,.loc3,.loc1,.loc4,.loc2,big,modifier,grapes,good,"['loc3', 'loc2', 'loc2']","[2385, 3232, 3704]",shears_small.jpg,grapes_small.jpg,grapes_small.jpg,grapes_big.jpg,19,test19,test,89,[],34,Yes,No comment.,2,2,5.00,Female,English,No problems.,Firefox,Windows,768,1366,30.312683333333332,
470,List2,pooltable_big.jpg,contrast,Click on the small banjo,.loc4,.loc3,.loc1,.loc2,small,modifier,banjo,good,"['loc4', 'loc2', 'loc2']","[2815, 4391, 6192]",crib_small.jpg,dropper_big.jpg,banjo_big.jpg,banjo_small.jpg,68,train28,train,90,[],34,Yes,No comment.,2,2,5.00,Female,English,No problems.,Firefox,Windows,768,1366,30.312683333333332,
470,List2,sleepingbag_plaid.jpg,semantic_control,Click on the partyhat,.loc2,.loc4,.loc3,.loc1,big,no_modifier,partyhat,good,"['loc3', 'loc1']","[3463, 4655]",sleepingbag_blue.jpg,partyhat_small.jpg,kooshball_small.jpg,partyhat_big.jpg,293,filler173,filler,91,[],34,Yes,No comment.,2,2,5.00,Female,English,No problems.,Firefox,Windows,768,1366,30.312683333333332,
470,List2,pumpkin_real.jpg,semantic_control,Click on the sunflower,.loc4,.loc1,.loc2,.loc3,small,no_modifier,sunflower,good,"['loc2', 'loc3']","[1823, 2719]",pumpkin_cookie.jpg,sunflower_big.jpg,tweezers_big.jpg,sunflower_small.jpg,284,filler164,filler,92,[],34,Yes,No comment.,2,2,5.00,Female,English,No problems.,Firefox,Windows,768,1366,30.312683333333332,
470,List2,broom_big.jpg,no_contrast,Click on the bagel,.loc4,.loc3,.loc2,.loc1,big,no_modifier,bagel,good,"['loc1', 'loc1']","[1152, 2297]",nutcracker_small.jpg,bagel_small.jpg,igloo_small.jpg,bagel_big.jpg,118,train78,train,93,[],34,Yes,No comment.,2,2,5.00,Female,English,No problems.,Firefox,Windows,768,1366,30.312683333333332,
470,List2,sewingmachine_big.jpg,contrast_control,Click on the nest,.loc3,.loc1,.loc4,.loc2,small,no_modifier,nest,good,"['loc2', 'loc2']","[2480, 3031]",sewingmachine_small.jpg,nest_big.jpg,victrola_big.jpg,nest_small.jpg,206,filler86,filler,94,[],34,Yes,No comment.,2,2,5.00,Female,English,No problems.,Firefox,Windows,768,1366,30.312683333333332,
470,List2,dustpan_big.jpg,semantic_contrast,Click on the rainbow slinky,.loc2,.loc4,.loc3,.loc1,rainbow,modifier,slinky,good,"['loc1', 'loc1', 'loc1']","[2360, 3057, 5344]",measuringcups_small.jpg,golfiron.jpg,slinky_silver.jpg,slinky_rainbow.jpg,143,filler23,filler,95,[],34,Yes,No comment.,2,2,5.00,Female,English,No problems.,Firefox,Windows,768,1366,30.312683333333332,
470,List2,cassette_black.jpg,semantic_control,Click on the garlic,.loc4,.loc3,.loc1,.loc2,small,no_modifier,garlic,good,"['loc1', 'loc2']","[3672, 4520]",cassette_white.jpg,garlic_big.jpg,tank_big.jpg,garlic_small.jpg,268,filler148,filler,96,[],34,Yes,No comment.,2,2,5.00,Female,English,No problems.,Firefox,Windows,768,1366,30.312683333333332,
470,List2,africanmask_big.jpg,contrast,Click on the small wheel,.loc3,.loc1,.loc2,.loc4,small,modifier,wheel,good,"['loc3', 'loc4', 'loc4']","[4225, 5368, 5952]",graduationhat_small.jpg,safetypin_big.jpg,wheel_big.jpg,wheel_small.jpg,56,train16,train,97,[],34,Yes,No comment.,2,2,5.00,Female,English,No problems.,Firefox,Windows,768,1366,30.312683333333332,
470,List2,hairclip_big.jpg,no_contrast,Click on the small bird,.loc3,.loc2,.loc1,.loc4,small,modifier,bird,good,"['loc2', 'loc4', 'loc4']","[1763, 3240, 3761]",trophy_small.jpg,kayak_big.jpg,kayak_big.jpg,bird_small.jpg,30,test30,test,98,[],34,Yes,No comment.,2,2,5.00,Female,English,No problems.,Firefox,Windows,768,1366,30.312683333333332,
470,List2,chick_big.jpg,contrast_control,Click on the helmet,.loc1,.loc3,.loc2,.loc4,big,no_modifier,helmet,good,"['loc3', 'loc4']","[3096, 3919]",chick_small.jpg,helmet_small.jpg,cables_small.jpg,helmet_big.jpg,185,filler65,filler,99,[],34,Yes,No comment.,2,2,5.00,Female,English,No problems.,Firefox,Windows,768,1366,30.312683333333332,
470,List2,victrola_big.jpg,contrast,Click on the small butterfly,.loc2,.loc4,.loc1,.loc3,small,modifier,butterfly,good,"['loc1', 'loc1', 'loc3']","[9056, 9664, 10720]",bed_small.jpg,parkingmeter_big.jpg,butterfly_big.jpg,butterfly_small.jpg,48,train8,train,100,[],34,Yes,No comment.,2,2,5.00,Female,English,No problems.,Firefox,Windows,768,1366,30.312683333333332,
470,List2,perfume_tall.jpg,semantic_control,Click on the spoon,.loc1,.loc2,.loc4,.loc3,big,no_modifier,spoon,good,"['loc3', 'loc3']","[1103, 4983]",perfume_short.jpg,spoon_small.jpg,lemur_small.jpg,spoon_big.jpg,255,filler135,filler,101,[],34,Yes,No comment.,2,2,5.00,Female,English,No problems.,Firefox,Windows,768,1366,30.312683333333332,
470,List2,beaker_big.jpg,contrast_control,Click on the fridge,.loc1,.loc3,.loc2,.loc4,small,no_modifier,fridge,good,"['loc3', 'loc4']","[3641, 4519]",beaker_small.jpg,fridge_big.jpg,groceries_big.jpg,fridge_small.jpg,214,filler94,filler,102,[],34,Yes,No comment.,2,2,5.00,Female,English,No problems.,Firefox,Windows,768,1366,30.312683333333332,
470,List2,jacket_big.jpg,no_contrast,Click on the comb,.loc3,.loc1,.loc2,.loc4,big,no_modifier,comb,good,"['loc4', 'loc4']","[2416, 2952]",bowlingball_small.jpg,comb_small.jpg,spaceship_small.jpg,comb_big.jpg,86,train46,train,103,[],34,Yes,No comment.,2,2,5.00,Female,English,No problems.,Firefox,Windows,768,1366,30.312683333333332,
470,List2,firealarm_big.jpg,contrast,Click on the big violin,.loc2,.loc3,.loc1,.loc4,big,modifier,violin,good,"['loc4', 'loc4', 'loc4']","[3073, 3697, 5281]",beaker_small.jpg,maracas_small.jpg,violin_small.jpg,violin_big.jpg,53,train13,train,104,[],34,Yes,No comment.,2,2,5.00,Female,English,No problems.,Firefox,Windows,768,1366,30.312683333333332,
470,List2,evenbars_big.jpg,semantic_contrast,Click on the reading glasses,.loc4,.loc3,.loc2,.loc1,reading,modifier,glasses,good,"['loc2', 'loc1', 'loc1']","[3176, 5335, 5887]",kitchentimer_small.jpg,fishhook.jpg,glasses_sun.jpg,glasses_reading.jpg,133,filler13,filler,105,[],34,Yes,No comment.,2,2,5.00,Female,English,No problems.,Firefox,Windows,768,1366,30.312683333333332,
470,List2,castanets_big.jpg,semantic_contrast,Click on the strawberry pie,.loc4,.loc2,.loc3,.loc1,strawberry,modifier,pie,good,"['loc1', 'loc1', 'loc1']","[5033, 6711, 7920]",toyhorse_small.jpg,jalapeno.jpg,pie_cherry.jpg,pie_strawberry.jpg,178,filler58,filler,106,[],34,Yes,No comment.,2,2,5.00,Female,English,No problems.,Firefox,Windows,768,1366,30.312683333333332,
470,List2,puppy_big.jpg,contrast,Click on the small boat,.loc4,.loc1,.loc3,.loc2,small,modifier,boat,good,"['loc3', 'loc2', 'loc2']","[3056, 4576, 5488]",lighthouse_small.jpg,usbstick_big.jpg,boat_big.jpg,boat_small.jpg,74,train34,train,107,[],34,Yes,No comment.,2,2,5.00,Female,English,No problems.,Firefox,Windows,768,1366,30.312683333333332,
470,List2,robe_big.jpg,semantic_contrast,Click on the twoslot toaster,.loc1,.loc4,.loc2,.loc3,twoslot,modifier,toaster,good,"['loc1', 'loc3', 'loc3']","[4656, 6208, 6690]",eyeshadow_small.jpg,recyclingbox.jpg,toaster_fourslot.jpg,toaster_twoslot.jpg,161,filler41,filler,108,[],34,Yes,No comment.,2,2,5.00,Female,English,No problems.,Firefox,Windows,768,1366,30.312683333333332,
470,List2,molecule_big.jpg,no_contrast,Click on the big lock,.loc3,.loc4,.loc2,.loc1,big,modifier,lock,good,"['loc4', 'loc1', 'loc1']","[3566, 4830, 5335]",sneaker_small.jpg,fan_small.jpg,fan_small.jpg,lock_big.jpg,38,test38,test,109,[],34,Yes,No comment.,2,2,5.00,Female,English,No problems.,Firefox,Windows,768,1366,30.312683333333332,
470,List2,bananas_big.jpg,no_contrast,Click on the giraffe,.loc1,.loc3,.loc2,.loc4,small,no_modifier,giraffe,good,"['loc4', 'loc4']","[6030, 6599]",conch_small.jpg,giraffe_big.jpg,rope_big.jpg,giraffe_small.jpg,91,train51,train,110,[],34,Yes,No comment.,2,2,5.00,Female,English,No problems.,Firefox,Windows,768,1366,30.312683333333332,
470,List2,shield_big.jpg,semantic_contrast,Click on the convertible car,.loc1,.loc2,.loc3,.loc4,convertible,modifier,car,good,"['loc3', 'loc4', 'loc4']","[12103, 13559, 13974]",plum_small.jpg,pocketwatch.jpg,car_sedan.jpg,car_convertible.jpg,158,filler38,filler,111,[],34,Yes,No comment.,2,2,5.00,Female,English,No problems.,Firefox,Windows,768,1366,30.312683333333332,
470,List2,groceries_big.jpg,contrast,Click on the small teabag,.loc4,.loc3,.loc1,.loc2,small,modifier,teabag,good,"['loc4', 'loc2', 'loc2']","[1753, 2944, 3296]",lion_small.jpg,chipmunk_big.jpg,teabag_big.jpg,teabag_small.jpg,60,train20,train,112,[],34,Yes,No comment.,2,2,5.00,Female,English,No problems.,Firefox,Windows,768,1366,30.312683333333332,
470,List2,bandage_big.jpg,contrast,Click on the small nut,.loc1,.loc3,.loc4,.loc2,small,modifier,nut,good,"['loc4', 'loc4', 'loc2']","[3113, 4001, 5080]",axe_small.jpg,spotlight_big.jpg,nut_big.jpg,nut_small.jpg,64,train24,train,113,[],34,Yes,No comment.,2,2,5.00,Female,English,No problems.,Firefox,Windows,768,1366,30.312683333333332,
470,List2,turnip_big.jpg,semantic_contrast,Click on the fivecent coins,.loc2,.loc1,.loc4,.loc3,fivecent,modifier,coins,good,"['loc1', 'loc3', 'loc3']","[6873, 8817, 9304]",pomegranate_small.jpg,rake.jpg,coins_tencent.jpg,coins_fivecent.jpg,160,filler40,filler,114,[],34,Yes,No comment.,2,2,5.00,Female,English,No problems.,Firefox,Windows,768,1366,30.312683333333332,
470,List2,payphone_big.jpg,semantic_contrast,Click on the red apple,.loc3,.loc2,.loc1,.loc4,red,modifier,apple,good,"['loc1', 'loc4', 'loc4']","[4840, 5736, 6137]",saddle_small.jpg,scale.jpg,apple_green.jpg,apple_red.jpg,166,filler46,filler,115,[],34,Yes,No comment.,2,2,5.00,Female,English,No problems.,Firefox,Windows,768,1366,30.312683333333332,
470,List2,protractor_big.jpg,semantic_contrast,Click on the shorthair puppet,.loc4,.loc1,.loc3,.loc2,shorthair,modifier,puppet,good,"['loc4', 'loc2', 'loc2']","[9255, 11055, 11615]",shades_small.jpg,sled.jpg,puppet_longhair.jpg,puppet_shorthair.jpg,169,filler49,filler,116,[],34,Yes,No comment.,2,2,5.00,Female,English,No problems.,Firefox,Windows,768,1366,30.312683333333332,
470,List2,quilt_blue.jpg,semantic_control,Click on the slide,.loc4,.loc2,.loc3,.loc1,big,no_modifier,slide,good,"['loc4', 'loc1']","[19496, 21080]",quilt_brown.jpg,slide_small.jpg,leopard_small.jpg,slide_big.jpg,257,filler137,filler,117,[],34,Yes,No comment.,2,2,5.00,Female,English,No problems.,Firefox,Windows,768,1366,30.312683333333332,
470,List2,pinata_big.jpg,semantic_contrast,Click on the wood hanger,.loc3,.loc4,.loc2,.loc1,wood,modifier,hanger,good,"['loc4', 'loc1', 'loc1']","[6048, 7464, 7888]",congadrum_small.jpg,bishop.jpg,hanger_plastic.jpg,hanger_wood.jpg,121,filler1,filler,118,[],34,Yes,No comment.,2,2,5.00,Female,English,No problems.,Firefox,Windows,768,1366,30.312683333333332,
470,List2,wreath_big.jpg,contrast_control,Click on the kangaroo,.loc1,.loc2,.loc4,.loc3,small,no_modifier,kangaroo,good,"['loc4', 'loc3']","[4535, 5776]",wreath_small.jpg,kangaroo_big.jpg,ghost_big.jpg,kangaroo_small.jpg,238,filler118,filler,119,[],34,Yes,No comment.,2,2,5.00,Female,English,No problems.,Firefox,Windows,768,1366,30.312683333333332,
470,List2,alligator_big.jpg,contrast_control,Click on the bed,.loc4,.loc2,.loc3,.loc1,small,no_modifier,bed,good,"['loc2', 'loc1']","[8310, 9279]",alligator_small.jpg,bed_big.jpg,coral_big.jpg,bed_small.jpg,228,filler108,filler,120,[],34,Yes,No comment.,2,2,5.00,Female,English,No problems.,Firefox,Windows,768,1366,30.312683333333332,
470,List2,candle_big.jpg,contrast_control,Click on the baseballglove,.loc3,.loc2,.loc1,.loc4,small,no_modifier,baseballglove,good,"['loc2', 'loc4']","[3176, 4094]",candle_small.jpg,baseballglove_big.jpg,africanmask_big.jpg,baseballglove_small.jpg,212,filler92,filler,121,[],34,Yes,No comment.,2,2,5.00,Female,English,No problems.,Firefox,Windows,768,1366,30.312683333333332,
470,List2,candycanes_big.jpg,contrast,Click on the small snail,.loc1,.loc4,.loc3,.loc2,small,modifier,snail,good,"['loc2', 'loc2', 'loc2']","[6505, 7032, 7552]",radish_small.jpg,alien_big.jpg,snail_big.jpg,snail_small.jpg,76,train36,train,122,[],34,Yes,No comment.,2,2,5.00,Female,English,No problems.,Firefox,Windows,768,1366,30.312683333333332,
470,List2,cane_big.jpg,contrast,Click on the small onion,.loc2,.loc3,.loc1,.loc4,small,modifier,onion,good,"['loc4', 'loc4', 'loc4']","[2168, 3105, 3664]",alligator_small.jpg,onion_big.jpg,onion_big.jpg,onion_small.jpg,5,test5,test,123,[],34,Yes,No comment.,2,2,5.00,Female,English,No problems.,Firefox,Windows,768,1366,30.312683333333332,
470,List2,pineapple_big.jpg,contrast,Click on the small igloo,.loc1,.loc2,.loc4,.loc3,small,modifier,igloo,good,"['loc3', 'loc3', 'loc3']","[6344, 6920, 7688]",snowflake_small.jpg,canon_big.jpg,igloo_big.jpg,igloo_small.jpg,78,train38,train,124,[],34,Yes,No comment.,2,2,5.00,Female,English,No problems.,Firefox,Windows,768,1366,30.312683333333332,
470,List2,exerciseball_big.jpg,semantic_contrast,Click on the hawaiian shirt,.loc2,.loc3,.loc4,.loc1,hawaiian,modifier,shirt,good,"['loc4', 'loc1', 'loc1']","[8416, 9784, 10248]",policecar_small.jpg,yellowrose.jpg,shirt_corvette.jpg,shirt_hawaiian.jpg,163,filler43,filler,125,[],34,Yes,No comment.,2,2,5.00,Female,English,No problems.,Firefox,Windows,768,1366,30.312683333333332,
470,List2,butternutsquash_big.jpg,semantic_contrast,Click on the heart candy,.loc2,.loc3,.loc1,.loc4,heart,modifier,candy,good,"['loc2', 'loc4', 'loc4']","[6617, 7537, 7905]",leopard_small.jpg,frame.jpg,candy_orange.jpg,candy_heart.jpg,138,filler18,filler,126,[],34,Yes,No comment.,2,2,5.00,Female,English,No problems.,Firefox,Windows,768,1366,30.312683333333332,
470,List2,duck_camo.jpg,semantic_control,Click on the potato,.loc1,.loc4,.loc3,.loc2,small,no_modifier,potato,good,"['loc2', 'loc2']","[6583, 7118]",duck_zebra.jpg,potato_big.jpg,dustpan_big.jpg,potato_small.jpg,262,filler142,filler,127,[],34,Yes,No comment.,2,2,5.00,Female,English,No problems.,Firefox,Windows,768,1366,30.312683333333332,
470,List2,hookah_big.jpg,contrast_control,Click on the panda,.loc3,.loc2,.loc1,.loc4,big,no_modifier,panda,good,"['loc2', 'loc4']","[8920, 9768]",hookah_small.jpg,panda_small.jpg,brooch_small.jpg,panda_big.jpg,221,filler101,filler,128,[],34,Yes,No comment.,2,2,5.00,Female,English,No problems.,Firefox,Windows,768,1366,30.312683333333332,
470,List2,washer_big.jpg,contrast_control,Click on the grill,.loc2,.loc1,.loc3,.loc4,small,no_modifier,grill,good,"['loc2', 'loc4']","[4728, 5567]",washer_small.jpg,grill_big.jpg,clog_big.jpg,grill_small.jpg,226,filler106,filler,129,[],34,Yes,No comment.,2,2,5.00,Female,English,No problems.,Firefox,Windows,768,1366,30.312683333333332,
470,List2,chips_single.jpg,semantic_control,Click on the window,.loc1,.loc2,.loc4,.loc3,big,no_modifier,window,good,"['loc3', 'loc3']","[2247, 2782]",chips_multiple.jpg,window_small.jpg,saddle_small.jpg,window_big.jpg,281,filler161,filler,130,[],34,Yes,No comment.,2,2,5.00,Female,English,No problems.,Firefox,Windows,768,1366,30.312683333333332,
470,List2,filingcabinet_black.jpg,semantic_control,Click on the bananas,.loc4,.loc1,.loc3,.loc2,big,no_modifier,bananas,good,"['loc1', 'loc1']","[5440, 6160]",filingcabinet_gray.jpg,bananas_small.jpg,nailpolish_small.jpg,bananas_big.jpg,271,filler151,filler,131,[],34,Yes,No comment.,2,2,5.00,Female,English,No problems.,Firefox,Windows,768,1366,30.312683333333332,
470,List2,bloodymary_big.jpg,semantic_contrast,Click on the red toothbrush,.loc2,.loc1,.loc4,.loc3,red,modifier,toothbrush,good,"['loc1', 'loc3', 'loc3']","[5631, 6943, 7543]",threeholepunch_small.jpg,baseballbat.jpg,toothbrush_purple.jpg,toothbrush_red.jpg,176,filler56,filler,132,[],34,Yes,No comment.,2,2,5.00,Female,English,No problems.,Firefox,Windows,768,1366,30.312683333333332,
470,List2,wheelbarrow_blue.jpg,semantic_control,Click on the teepee,.loc3,.loc2,.loc4,.loc1,big,no_modifier,teepee,good,"['loc3', 'loc1']","[2952, 4064]",wheelbarrow_red.jpg,teepee_small.jpg,manatee_small.jpg,teepee_big.jpg,259,filler139,filler,133,[],34,Yes,No comment.,2,2,5.00,Female,English,No problems.,Firefox,Windows,768,1366,30.312683333333332,
470,List2,pill_hard.jpg,semantic_control,Click on the radish,.loc1,.loc2,.loc3,.loc4,small,no_modifier,radish,good,"['loc4', 'loc4']","[9368, 10312]",pill_capsule.jpg,radish_big.jpg,bikewithbasket_big.jpg,radish_small.jpg,256,filler136,filler,134,[],34,Yes,No comment.,2,2,5.00,Female,English,No problems.,Firefox,Windows,768,1366,30.312683333333332,
470,List2,blackboard_big.jpg,contrast,Click on the big jeep,.loc2,.loc4,.loc3,.loc1,big,modifier,jeep,good,"['loc1', 'loc1', 'loc1']","[6215, 6792, 7422]",candyapple_small.jpg,snowboard_small.jpg,jeep_small.jpg,jeep_big.jpg,63,train23,train,135,[],34,Yes,No comment.,2,2,5.00,Female,English,No problems.,Firefox,Windows,768,1366,30.312683333333332,
470,List2,origami_big.jpg,no_contrast,Click on the cactus,.loc3,.loc1,.loc4,.loc2,small,no_modifier,cactus,good,"['loc1', 'loc2']","[5025, 5906]",brooch_small.jpg,cactus_big.jpg,lifevest_big.jpg,cactus_small.jpg,83,train43,train,136,[],34,Yes,No comment.,2,2,5.00,Female,English,No problems.,Firefox,Windows,768,1366,30.312683333333332,
470,List2,hookah_big.jpg,contrast,Click on the small fan,.loc1,.loc2,.loc3,.loc4,small,modifier,fan,good,"['loc3', 'loc4', 'loc4']","[3399, 4496, 4974]",flag_small.jpg,fan_big.jpg,fan_big.jpg,fan_small.jpg,18,test18,test,137,[],34,Yes,No comment.,2,2,5.00,Female,English,No problems.,Firefox,Windows,768,1366,30.312683333333332,
470,List2,artichoke_big.jpg,contrast_control,Click on the microscope,.loc2,.loc1,.loc3,.loc4,small,no_modifier,microscope,good,"['loc3', 'loc4']","[6042, 7608]",artichoke_small.jpg,microscope_big.jpg,plastichouse_big.jpg,microscope_small.jpg,210,filler90,filler,138,[],34,Yes,No comment.,2,2,5.00,Female,English,No problems.,Firefox,Windows,768,1366,30.312683333333332,
470,List2,tape_big.jpg,contrast,Click on the big bunny,.loc2,.loc3,.loc1,.loc4,big,modifier,bunny,good,"['loc1', 'loc4', 'loc4']","[2943, 4081, 4496]",lightbulb_small.jpg,bunny_small.jpg,bunny_small.jpg,bunny_big.jpg,17,test17,test,139,[],34,Yes,No comment.,2,2,5.00,Female,English,No problems.,Firefox,Windows,768,1366,30.312683333333332,
470,List2,wallsconce_speckled.jpg,semantic_control,Click on the raspberry,.loc2,.loc3,.loc1,.loc4,small,no_modifier,raspberry,good,"['loc4', 'loc4']","[6215, 6831]",wallsconce_tassles.jpg,raspberry_big.jpg,measuringtape_big.jpg,raspberry_small.jpg,290,filler170,filler,140,[],34,Yes,No comment.,2,2,5.00,Female,English,No problems.,Firefox,Windows,768,1366,30.312683333333332,
470,List2,blackspaceship_big.jpg,no_contrast,Click on the big plant,.loc1,.loc4,.loc2,.loc3,big,modifier,plant,good,"['loc2', 'loc1', 'loc3']","[1568, 6641, 7640]",bucket_small.jpg,guitar_small.jpg,guitar_small.jpg,plant_big.jpg,36,test36,test,141,[],34,Yes,No comment.,2,2,5.00,Female,English,No problems.,Firefox,Windows,768,1366,30.312683333333332,
470,List2,speaker_big.jpg,no_contrast,Click on the small cookie,.loc1,.loc2,.loc4,.loc3,small,modifier,cookie,good,"['loc3', 'loc4', 'loc3']","[2760, 4136, 5352]",teapot_small.jpg,tuxedo_big.jpg,tuxedo_big.jpg,cookie_small.jpg,24,test24,test,142,[],34,Yes,No comment.,2,2,5.00,Female,English,No problems.,Firefox,Windows,768,1366,30.312683333333332,
470,List2,partyhat_big.jpg,no_contrast,Click on the vase,.loc4,.loc3,.loc2,.loc1,small,no_modifier,vase,good,"['loc4', 'loc1']","[6095, 7287]",burger_small.jpg,vase_big.jpg,suit_big.jpg,vase_small.jpg,113,train73,train,143,[],34,Yes,No comment.,2,2,5.00,Female,English,No problems.,Firefox,Windows,768,1366,30.312683333333332,
470,List2,wheelchair_big.jpg,contrast_control,Click on the stoplight,.loc4,.loc3,.loc2,.loc1,small,no_modifier,stoplight,good,"['loc3', 'loc1']","[3616, 4377]",wheelchair_small.jpg,stoplight_big.jpg,chess_big.jpg,stoplight_small.jpg,224,filler104,filler,144,[],34,Yes,No comment.,2,2,5.00,Female,English,No problems.,Firefox,Windows,768,1366,30.312683333333332,
470,List2,weddingcake_big.jpg,semantic_contrast,Click on the red bathingsuit,.loc3,.loc1,.loc2,.loc4,red,modifier,bathingsuit,good,"['loc2', 'loc4', 'loc4']","[1871, 2735, 2975]",jackolantern_small.jpg,chopsticks.jpg,bathingsuit_blue.jpg,bathingsuit_red.jpg,127,filler7,filler,145,[],34,Yes,No comment.,2,2,5.00,Female,English,No problems.,Firefox,Windows,768,1366,30.312683333333332,
470,List2,tricycle_plastic.jpg,semantic_control,Click on the wagon,.loc3,.loc2,.loc1,.loc4,small,no_modifier,wagon,good,"['loc4', 'loc4']","[2544, 3408]",tricycle_red.jpg,wagon_big.jpg,turnip_big.jpg,wagon_small.jpg,272,filler152,filler,146,[],34,Yes,No comment.,2,2,5.00,Female,English,No problems.,Firefox,Windows,768,1366,30.312683333333332,
470,List2,eiffeltower_big.jpg,no_contrast,Click on the rooster,.loc3,.loc1,.loc2,.loc4,big,no_modifier,rooster,good,"['loc4', 'loc4']","[1951, 2471]",glove_small.jpg,rooster_small.jpg,teabag_small.jpg,rooster_big.jpg,100,train60,train,147,[],34,Yes,No comment.,2,2,5.00,Female,English,No problems.,Firefox,Windows,768,1366,30.312683333333332,
470,List2,bowtie_big.jpg,no_contrast,Click on the owl,.loc1,.loc2,.loc3,.loc4,small,no_modifier,owl,good,"['loc1', 'loc4']","[1542, 2622]",faucet_small.jpg,owl_big.jpg,house_big.jpg,owl_small.jpg,97,train57,train,148,[],34,Yes,No comment.,2,2,5.00,Female,English,No problems.,Firefox,Windows,768,1366,30.312683333333332,
470,List2,hawk_big.jpg,contrast,Click on the big wallet,.loc3,.loc4,.loc2,.loc1,big,modifier,wallet,good,"['loc4', 'loc1', 'loc1']","[247, 1967, 2360]",hay_small.jpg,gasmask_small.jpg,wallet_small.jpg,wallet_big.jpg,71,train31,train,149,[],34,Yes,No comment.,2,2,5.00,Female,English,No problems.,Firefox,Windows,768,1366,30.312683333333332,
470,List2,babywalker_blue.jpg,semantic_control,Click on the train,.loc1,.loc3,.loc2,.loc4,big,no_modifier,train,good,"['loc2', 'loc4']","[6072, 7857]",babywalker_yellow.jpg,train_small.jpg,thermometer_small.jpg,train_big.jpg,265,filler145,filler,150,[],34,Yes,No comment.,2,2,5.00,Female,English,No problems.,Firefox,Windows,768,1366,30.312683333333332,
470,List2,creamer_big.jpg,no_contrast,Click on the glass,.loc2,.loc4,.loc3,.loc1,big,no_modifier,glass,good,"['loc4', 'loc1']","[8903, 9935]",wagon_small.jpg,glass_small.jpg,drum_small.jpg,glass_big.jpg,92,train52,train,151,[],34,Yes,No comment.,2,2,5.00,Female,English,No problems.,Firefox,Windows,768,1366,30.312683333333332,
470,List2,pasta_ravioli.jpg,semantic_control,Click on the package,.loc2,.loc4,.loc3,.loc1,small,no_modifier,package,good,"['loc1', 'loc1']","[4072, 4865]",pasta_spaghetti.jpg,package_big.jpg,bloodymary_big.jpg,package_small.jpg,296,filler176,filler,152,[],34,Yes,No comment.,2,2,5.00,Female,English,No problems.,Firefox,Windows,768,1366,30.312683333333332,
470,List2,seesaw_big.jpg,semantic_contrast,Click on the barn mailbox,.loc4,.loc3,.loc2,.loc1,barn,modifier,mailbox,good,"['loc2', 'loc1', 'loc1']","[3423, 4399, 4839]",pitchfork_small.jpg,pinkshoes.jpg,mailbox_cow.jpg,mailbox_barn.jpg,157,filler37,filler,153,[],34,Yes,No comment.,2,2,5.00,Female,English,No problems.,Firefox,Windows,768,1366,30.312683333333332,
470,List2,globe_big.jpg,contrast_control,Click on the pie,.loc4,.loc2,.loc1,.loc3,small,no_modifier,pie,good,"['loc2', 'loc3']","[5888, 6896]",globe_small.jpg,pie_big.jpg,bandage_big.jpg,pie_small.jpg,216,filler96,filler,154,[],34,Yes,No comment.,2,2,5.00,Female,English,No problems.,Firefox,Windows,768,1366,30.312683333333332,
470,List2,coffeemaker_orange.jpg,semantic_control,Click on the button,.loc3,.loc4,.loc2,.loc1,big,no_modifier,button,good,"['loc1', 'loc1']","[4552, 5104]",coffeemaker_blue.jpg,button_small.jpg,congadrum_small.jpg,button_big.jpg,241,filler121,filler,155,[],34,Yes,No comment.,2,2,5.00,Female,English,No problems.,Firefox,Windows,768,1366,30.312683333333332,
470,List2,watercooler_big.jpg,semantic_contrast,Click on the blue balloon,.loc1,.loc3,.loc2,.loc4,blue,modifier,balloon,good,"['loc3', 'loc4', 'loc4']","[3840, 4896, 5111]",huntingvest_small.jpg,treasurechest.jpg,balloon_red.jpg,balloon_blue.jpg,126,filler6,filler,156,[],34,Yes,No comment.,2,2,5.00,Female,English,No problems.,Firefox,Windows,768,1366,30.312683333333332,
470,List2,shapestoy_big.jpg,contrast,Click on the big tuxedo,.loc2,.loc1,.loc3,.loc4,big,modifier,tuxedo,good,"['loc4', 'loc4', 'loc4']","[3480, 4017, 4585]",pillow_small.jpg,tuxedo_small.jpg,tuxedo_small.jpg,tuxedo_big.jpg,4,test4,test,157,[],34,Yes,No comment.,2,2,5.00,Female,English,No problems.,Firefox,Windows,768,1366,30.312683333333332,
470,List2,broccoli_big.jpg,no_contrast,Click on the small backpack,.loc4,.loc1,.loc2,.loc3,small,modifier,backpack,good,"['loc1', 'loc2', 'loc3']","[4120, 7928, 9136]",shovel_small.jpg,dress_big.jpg,dress_big.jpg,backpack_small.jpg,26,test26,test,158,[],34,Yes,No comment.,2,2,5.00,Female,English,No problems.,Firefox,Windows,768,1366,30.312683333333332,
470,List2,pig_big.jpg,no_contrast,Click on the fork,.loc3,.loc1,.loc4,.loc2,small,no_modifier,fork,good,"['loc1', 'loc2']","[4657, 5816]",blender_small.jpg,fork_big.jpg,wallet_big.jpg,fork_small.jpg,111,train71,train,159,[],34,Yes,No comment.,2,2,5.00,Female,English,No problems.,Firefox,Windows,768,1366,30.312683333333332,
470,List2,table_big.jpg,no_contrast,Click on the stool,.loc1,.loc3,.loc2,.loc4,small,no_modifier,stool,good,"['loc4', 'loc4']","[2064, 2616]",cushion_small.jpg,stool_big.jpg,jeep_big.jpg,stool_small.jpg,103,train63,train,160,[],34,Yes,No comment.,2,2,5.00,Female,English,No problems.,Firefox,Windows,768,1366,30.312683333333332,
470,List2,pot_brass.jpg,semantic_control,Click on the glove,.loc4,.loc1,.loc3,.loc2,small,no_modifier,glove,good,"['loc1', 'loc2']","[2025, 3016]",pot_ceramic.jpg,glove_big.jpg,handcuffs_big.jpg,glove_small.jpg,280,filler160,filler,161,[],34,Yes,No comment.,2,2,5.00,Female,English,No problems.,Firefox,Windows,768,1366,30.312683333333332,
470,List2,plant_largeleaves.jpg,semantic_control,Click on the blackboard,.loc1,.loc2,.loc3,.loc4,big,no_modifier,blackboard,good,"['loc1', 'loc4']","[1289, 2162]",plant_smallleaves.jpg,blackboard_small.jpg,horseshoe_small.jpg,blackboard_big.jpg,243,filler123,filler,162,[],34,Yes,No comment.,2,2,5.00,Female,English,No problems.,Firefox,Windows,768,1366,30.312683333333332,
470,List2,fishingpole_big.jpg,contrast,Click on the small saw,.loc2,.loc4,.loc1,.loc3,small,modifier,saw,good,"['loc1', 'loc3', 'loc3']","[1430, 3149, 3598]",dart_small.jpg,potatochips_big.jpg,saw_big.jpg,saw_small.jpg,50,train10,train,163,[],34,Yes,No comment.,2,2,5.00,Female,English,No problems.,Firefox,Windows,768,1366,30.312683333333332,
470,List2,kiwi_big.jpg,contrast,Click on the big target,.loc1,.loc3,.loc4,.loc2,big,modifier,target,good,"['loc4', 'loc2', 'loc2']","[5768, 7039, 7407]",toyhammer_small.jpg,clarinet_small.jpg,target_small.jpg,target_big.jpg,59,train19,train,164,[],34,Yes,No comment.,2,2,5.00,Female,English,No problems.,Firefox,Windows,768,1366,30.312683333333332,
470,List2,chess_big.jpg,contrast,Click on the small football,.loc4,.loc3,.loc1,.loc2,small,modifier,football,good,"['loc1', 'loc2', 'loc2']","[1272, 2776, 3184]",scrunchie_small.jpg,bib_big.jpg,football_big.jpg,football_small.jpg,80,train40,train,165,[],34,Yes,No comment.,2,2,5.00,Female,English,No problems.,Firefox,Windows,768,1366,30.312683333333332,
470,List2,laundrybasket_red.jpg,semantic_control,Click on the crib,.loc2,.loc4,.loc3,.loc1,small,no_modifier,crib,good,"['loc3', 'loc1']","[3392, 4496]",laundrybasket_white.jpg,crib_big.jpg,bootie_big.jpg,crib_small.jpg,248,filler128,filler,166,[],34,Yes,No comment.,2,2,5.00,Female,English,No problems.,Firefox,Windows,768,1366,30.312683333333332,
470,List2,batteries_big.jpg,semantic_contrast,Click on the round loafofbread,.loc4,.loc3,.loc2,.loc1,round,modifier,loafofbread,good,"['loc3', 'loc1', 'loc1']","[7000, 7967, 8368]",kneehammer_small.jpg,flamingo.jpg,loafofbread_rectangular.jpg,loafofbread_round.jpg,134,filler14,filler,167,[],34,Yes,No comment.,2,2,5.00,Female,English,No problems.,Firefox,Windows,768,1366,30.312683333333332,
470,List2,sandbox_big.jpg,semantic_contrast,Click on the lion doorknocker,.loc1,.loc4,.loc2,.loc3,lion,modifier,doorknocker,good,"['loc1', 'loc3', 'loc3']","[6640, 7807, 8351]",peppershaker_small.jpg,rug.jpg,doorknocker_dragon.jpg,doorknocker_lion.jpg,155,filler35,filler,168,[],34,Yes,No comment.,2,2,5.00,Female,English,No problems.,Firefox,Windows,768,1366,30.312683333333332,
470,List2,sushi_salmon.jpg,semantic_control,Click on the keyboard,.loc1,.loc4,.loc3,.loc2,big,no_modifier,keyboard,good,"['loc2', 'loc2']","[5456, 6055]",sushi_nigiri.jpg,keyboard_small.jpg,kitchentimer_small.jpg,keyboard_big.jpg,253,filler133,filler,169,[],34,Yes,No comment.,2,2,5.00,Female,English,No problems.,Firefox,Windows,768,1366,30.312683333333332,
470,List2,panflute_big.jpg,contrast,Click on the big brush,.loc4,.loc1,.loc2,.loc3,big,modifier,brush,good,"['loc2', 'loc3', 'loc3']","[5328, 6800, 7248]",dolphin_small.jpg,brush_small.jpg,brush_small.jpg,brush_big.jpg,2,test2,test,170,[],34,Yes,No comment.,2,2,5.00,Female,English,No problems.,Firefox,Windows,768,1366,30.312683333333332,
470,List2,suitcase_big.jpg,contrast,Click on the small bike,.loc2,.loc3,.loc1,.loc4,small,modifier,bike,good,"['loc2', 'loc4', 'loc4']","[2472, 7919, 8663]",wavevase_small.jpg,bike_big.jpg,bike_big.jpg,bike_small.jpg,11,test11,test,171,[],34,Yes,No comment.,2,2,5.00,Female,English,No problems.,Firefox,Windows,768,1366,30.312683333333332,
470,List2,lightbulb_big.jpg,contrast_control,Click on the brain,.loc4,.loc3,.loc2,.loc1,small,no_modifier,brain,good,"['loc2', 'loc1']","[3440, 4544]",lightbulb_small.jpg,brain_big.jpg,candycanes_big.jpg,brain_small.jpg,222,filler102,filler,172,[],34,Yes,No comment.,2,2,5.00,Female,English,No problems.,Firefox,Windows,768,1366,30.312683333333332,
470,List2,aabacus_four.jpg,semantic_control,Click on the castle,.loc1,.loc3,.loc2,.loc4,small,no_modifier,castle,good,"['loc4', 'loc4']","[8160, 8736]",aabacus_ten.jpg,castle_big.jpg,weddingcake_big.jpg,castle_small.jpg,246,filler126,filler,173,[],34,Yes,No comment.,2,2,5.00,Female,English,No problems.,Firefox,Windows,768,1366,30.312683333333332,
470,List2,parfait_stemglass.jpg,semantic_control,Click on the eggs,.loc2,.loc3,.loc1,.loc4,small,no_modifier,eggs,good,"['loc4', 'loc4']","[3335, 3846]",parfait_cup.jpg,eggs_big.jpg,pinata_big.jpg,eggs_small.jpg,242,filler122,filler,174,[],34,Yes,No comment.,2,2,5.00,Female,English,No problems.,Firefox,Windows,768,1366,30.312683333333332,
470,List2,sponge_big.jpg,no_contrast,Click on the small monkey,.loc3,.loc1,.loc2,.loc4,small,modifier,monkey,good,"['loc4', 'loc4', 'loc4']","[3288, 4943, 5528]",sportsbag_small.jpg,grapes_big.jpg,grapes_big.jpg,monkey_small.jpg,39,test39,test,175,[],34,Yes,No comment.,2,2,5.00,Female,English,No problems.,Firefox,Windows,768,1366,30.312683333333332,
470,List2,spoon_big.jpg,contrast,Click on the big pool,.loc3,.loc4,.loc2,.loc1,big,modifier,pool,good,"['loc3', 'loc1', 'loc1']","[6431, 7329, 7753]",cookiecutter_small.jpg,clover_small.jpg,pool_small.jpg,pool_big.jpg,75,train35,train,176,[],34,Yes,No comment.,2,2,5.00,Female,English,No problems.,Firefox,Windows,768,1366,30.312683333333332,
470,List2,wrench_big.jpg,semantic_contrast,Click on the open lock,.loc2,.loc4,.loc3,.loc1,open,modifier,lock,good,"['loc2', 'loc1', 'loc1']","[4846, 6318, 6687]",jumprope_small.jpg,speakers.jpg,lock_closed.jpg,lock_open.jpg,171,filler51,filler,177,[],34,Yes,No comment.,2,2,5.00,Female,English,No problems.,Firefox,Windows,768,1366,30.312683333333332,
470,List2,rollingpin_big.jpg,contrast,Click on the small spaceship,.loc4,.loc3,.loc1,.loc2,small,modifier,spaceship,good,"['loc2', 'loc2', 'loc2']","[8887, 9433, 10032]",grill_small.jpg,fishbowl_big.jpg,spaceship_big.jpg,spaceship_small.jpg,46,train6,train,178,[],34,Yes,No comment.,2,2,5.00,Female,English,No problems.,Firefox,Windows,768,1366,30.312683333333332,
470,List2,mailbox_farm.jpg,semantic_control,Click on the axe,.loc4,.loc3,.loc2,.loc1,small,no_modifier,axe,good,"['loc3', 'loc1']","[6864, 8047]",mailbox_green.jpg,axe_big.jpg,turkey_big.jpg,axe_small.jpg,244,filler124,filler,179,[],34,Yes,No comment.,2,2,5.00,Female,English,No problems.,Firefox,Windows,768,1366,30.312683333333332,
470,List2,plastichouse_big.jpg,contrast,Click on the small checkerboard,.loc2,.loc4,.loc1,.loc3,small,modifier,checkerboard,good,"['loc1', 'loc3', 'loc3']","[3839, 4848, 5152]",stoplight_small.jpg,binoculars_big.jpg,checkerboard_big.jpg,checkerboard_small.jpg,44,train4,train,180,[],34,Yes,No comment.,2,2,5.00,Female,English,No problems.,Firefox,Windows,768,1366,30.312683333333332,
470,List2,register_new.jpg,semantic_control,Click on the origami,.loc2,.loc3,.loc4,.loc1,big,no_modifier,origami,good,"['loc1', 'loc1']","[2736, 3319]",register_old.jpg,origami_small.jpg,meat_small.jpg,origami_big.jpg,263,filler143,filler,181,[],34,Yes,No comment.,2,2,5.00,Female,English,No problems.,Firefox,Windows,768,1366,30.312683333333332,
470,List2,champagne_big.jpg,contrast,Click on the big yarn,.loc3,.loc2,.loc1,.loc4,big,modifier,yarn,good,"['loc3', 'loc4', 'loc4']","[1960, 2856, 3127]",babycup_small.jpg,walkietalkie_small.jpg,yarn_small.jpg,yarn_big.jpg,67,train27,train,182,[],34,Yes,No comment.,2,2,5.00,Female,English,No problems.,Firefox,Windows,768,1366,30.312683333333332,
470,List2,coconut_big.jpg,no_contrast,Click on the toy,.loc1,.loc4,.loc2,.loc3,big,no_modifier,toy,good,"['loc4', 'loc3']","[1952, 2977]",stingray_small.jpg,toy_small.jpg,camel_small.jpg,toy_big.jpg,106,train66,train,183,[],34,Yes,No comment.,2,2,5.00,Female,English,No problems.,Firefox,Windows,768,1366,30.312683333333332,
470,List2,pancakes_big.jpg,contrast_control,Click on the tissues,.loc1,.loc3,.loc2,.loc4,small,no_modifier,tissues,good,"['loc2', 'loc4']","[3616, 4560]",pancakes_small.jpg,tissues_big.jpg,bagpipes_big.jpg,tissues_small.jpg,200,filler80,filler,184,[],34,Yes,No comment.,2,2,5.00,Female,English,No problems.,Firefox,Windows,768,1366,30.312683333333332,
470,List2,fishingpole_big.jpg,contrast_control,Click on the laptop,.loc3,.loc1,.loc4,.loc2,big,no_modifier,laptop,good,"['loc2', 'loc2']","[2136, 2695]",fishingpole_small.jpg,laptop_small.jpg,hay_small.jpg,laptop_big.jpg,215,filler95,filler,185,[],34,Yes,No comment.,2,2,5.00,Female,English,No problems.,Firefox,Windows,768,1366,30.312683333333332,
470,List2,kettle_silver.jpg,semantic_control,Click on the bowtie,.loc2,.loc3,.loc1,.loc4,big,no_modifier,bowtie,good,"['loc4', 'loc4']","[1632, 2177]",kettle_gold.jpg,bowtie_small.jpg,pomegranate_small.jpg,bowtie_big.jpg,277,filler157,filler,186,[],34,Yes,No comment.,2,2,5.00,Female,English,No problems.,Firefox,Windows,768,1366,30.312683333333332,
470,List2,womansshoe_pair.jpg,semantic_control,Click on the table,.loc3,.loc1,.loc4,.loc2,big,no_modifier,table,good,"['loc4', 'loc2']","[3950, 4814]",womansshoe_single.jpg,table_small.jpg,jumprope_small.jpg,table_big.jpg,283,filler163,filler,187,[],34,Yes,No comment.,2,2,5.00,Female,English,No problems.,Firefox,Windows,768,1366,30.312683333333332,
470,List2,accordion_big.jpg,contrast,Click on the big kayak,.loc2,.loc1,.loc4,.loc3,big,modifier,kayak,good,"['loc3', 'loc3', 'loc3']","[8208, 8744, 9320]",microscope_small.jpg,kayak_small.jpg,kayak_small.jpg,kayak_big.jpg,10,test10,test,188,[],34,Yes,No comment.,2,2,5.00,Female,English,No problems.,Firefox,Windows,768,1366,30.312683333333332,
470,List2,bootie_big.jpg,semantic_contrast,Click on the red wine,.loc2,.loc4,.loc3,.loc1,red,modifier,wine,good,"['loc1', 'loc1', 'loc1']","[9664, 10168, 10584]",jar_small.jpg,cockerspaniel.jpg,wine_white.jpg,wine_red.jpg,128,filler8,filler,189,[],34,Yes,No comment.,2,2,5.00,Female,English,No problems.,Firefox,Windows,768,1366,30.312683333333332,
470,List2,noisemaker_purple.jpg,semantic_control,Click on the swan,.loc4,.loc3,.loc1,.loc2,big,no_modifier,swan,good,"['loc2', 'loc2']","[3000, 3528]",noisemaker_green.jpg,swan_small.jpg,skirt_small.jpg,swan_big.jpg,285,filler165,filler,190,[],34,Yes,No comment.,2,2,5.00,Female,English,No problems.,Firefox,Windows,768,1366,30.312683333333332,
470,List2,keyboard_big.jpg,contrast,Click on the big suit,.loc1,.loc3,.loc4,.loc2,big,modifier,suit,good,"['loc4', 'loc2', 'loc2']","[2928, 3928, 4351]",redrose_small.jpg,qtip_small.jpg,suit_small.jpg,suit_big.jpg,73,train33,train,191,[],34,Yes,No comment.,2,2,5.00,Female,English,No problems.,Firefox,Windows,768,1366,30.312683333333332,
470,List2,button_big.jpg,contrast,Click on the big alarmclock,.loc4,.loc2,.loc3,.loc1,big,modifier,alarmclock,good,"['loc4', 'loc1', 'loc1']","[4568, 6023, 6368]",artichoke_small.jpg,earth_small.jpg,alarmclock_small.jpg,alarmclock_big.jpg,61,train21,train,192,[],34,Yes,No comment.,2,2,5.00,Female,English,No problems.,Firefox,Windows,768,1366,30.312683333333332,
470,List2,cannoli_big.jpg,contrast_control,Click on the graduationhat,.loc3,.loc1,.loc4,.loc2,small,no_modifier,graduationhat,good,"['loc1', 'loc2']","[2135, 3144]",cannoli_small.jpg,graduationhat_big.jpg,footstool_big.jpg,graduationhat_small.jpg,236,filler116,filler,193,[],34,Yes,No comment.,2,2,5.00,Female,English,No problems.,Firefox,Windows,768,1366,30.312683333333332,
470,List2,windmill_big.jpg,contrast_control,Click on the kiwi,.loc3,.loc2,.loc1,.loc4,big,no_modifier,kiwi,good,"['loc2', 'loc4']","[248, 1704]",windmill_small.jpg,kiwi_small.jpg,tote_small.jpg,kiwi_big.jpg,239,filler119,filler,194,[],34,Yes,No comment.,2,2,5.00,Female,English,No problems.,Firefox,Windows,768,1366,30.312683333333332,
470,List2,floppy_big.jpg,no_contrast,Click on the firehydrant,.loc2,.loc3,.loc4,.loc1,big,no_modifier,firehydrant,good,"['loc2', 'loc1']","[4200, 5144]",chocolatebar_small.jpg,firehydrant_small.jpg,harp_small.jpg,firehydrant_big.jpg,94,train54,train,195,[],34,Yes,No comment.,2,2,5.00,Female,English,No problems.,Firefox,Windows,768,1366,30.312683333333332,
470,List2,celery_big.jpg,semantic_contrast,Click on the electric kettle,.loc4,.loc1,.loc2,.loc3,electric,modifier,kettle,good,"['loc1', 'loc1', 'loc3']","[3168, 3944, 6392]",loofa_small.jpg,frenchtoast.jpg,kettle_stovetop.jpg,kettle_electric.jpg,139,filler19,filler,196,[],34,Yes,No comment.,2,2,5.00,Female,English,No problems.,Firefox,Windows,768,1366,30.312683333333332,
470,List2,basket_big.jpg,contrast,Click on the small feather,.loc3,.loc4,.loc1,.loc2,small,modifier,feather,good,"['loc1', 'loc2', 'loc2']","[2368, 3256, 3608]",washer_small.jpg,feather_big.jpg,feather_big.jpg,feather_small.jpg,9,test9,test,197,[],34,Yes,No comment.,2,2,5.00,Female,English,No problems.,Firefox,Windows,768,1366,30.312683333333332,
470,List2,iguana_big.jpg,no_contrast,Click on the big ball,.loc2,.loc4,.loc1,.loc3,big,modifier,ball,good,"['loc1', 'loc3', 'loc3']","[3104, 4192, 4552]",lime_small.jpg,tree_small.jpg,tree_small.jpg,ball_big.jpg,34,test34,test,198,[],34,Yes,No comment.,2,2,5.00,Female,English,No problems.,Firefox,Windows,768,1366,30.312683333333332,
470,List2,bikewithbasket_big.jpg,semantic_contrast,Click on the metal sink,.loc1,.loc3,.loc4,.loc2,metal,modifier,sink,good,"['loc4', 'loc2', 'loc2']","[3950, 6022, 6407]",ladle_small.jpg,flowerpot.jpg,sink_porcelain.jpg,sink_metal.jpg,136,filler16,filler,199,[],34,Yes,No comment.,2,2,5.00,Female,English,No problems.,Firefox,Windows,768,1366,30.312683333333332,
470,List2,tambourine_big.jpg,contrast,Click on the small domino,.loc1,.loc4,.loc2,.loc3,small,modifier,domino,good,"['loc2', 'loc3', 'loc3']","[6152, 7351, 7767]",eggs_small.jpg,peeler_big.jpg,domino_big.jpg,domino_small.jpg,62,train22,train,200,[],34,Yes,No comment.,2,2,5.00,Female,English,No problems.,Firefox,Windows,768,1366,30.312683333333332,
470,List2,turkey_big.jpg,semantic_contrast,Click on the electric guitar,.loc3,.loc1,.loc4,.loc2,electric,modifier,guitar,good,"['loc2', 'loc2', 'loc2']","[5664, 6679, 7376]",horseshoe_small.jpg,cardinal.jpg,guitar_classic.jpg,guitar_electric.jpg,124,filler4,filler,201,[],34,Yes,No comment.,2,2,5.00,Female,English,No problems.,Firefox,Windows,768,1366,30.312683333333332,
470,List2,gingerbreadcookie_big.jpg,semantic_contrast,Click on the mobile phone,.loc1,.loc2,.loc3,.loc4,mobile,modifier,phone,good,"['loc4', 'loc4', 'loc4']","[6024, 6759, 7232]",nailpolish_small.jpg,ship.jpg,phone_landline.jpg,phone_mobile.jpg,147,filler27,filler,202,[],34,Yes,No comment.,2,2,5.00,Female,English,No problems.,Firefox,Windows,768,1366,30.312683333333332,
470,List2,beermug_big.jpg,contrast,Click on the big beetle,.loc2,.loc4,.loc1,.loc3,big,modifier,beetle,good,"['loc4', 'loc3', 'loc3']","[5536, 6632, 6960]",pinkdice_small.jpg,lei_small.jpg,beetle_small.jpg,beetle_big.jpg,47,train7,train,203,[],34,Yes,No comment.,2,2,5.00,Female,English,No problems.,Firefox,Windows,768,1366,30.312683333333332,
470,List2,candleholder_big.jpg,contrast_control,Click on the cake,.loc3,.loc2,.loc4,.loc1,small,no_modifier,cake,good,"['loc2', 'loc1']","[3008, 3944]",candleholder_small.jpg,cake_big.jpg,speaker_big.jpg,cake_small.jpg,182,filler62,filler,204,[],34,Yes,No comment.,2,2,5.00,Female,English,No problems.,Firefox,Windows,768,1366,30.312683333333332,
470,List2,sock_big.jpg,no_contrast,Click on the penguin,.loc2,.loc1,.loc3,.loc4,small,no_modifier,penguin,good,"['loc1', 'loc4']","[239, 1528]",bush_small.jpg,penguin_big.jpg,target_big.jpg,penguin_small.jpg,99,train59,train,205,[],34,Yes,No comment.,2,2,5.00,Female,English,No problems.,Firefox,Windows,768,1366,30.312683333333332,
470,List2,ladybug_big.jpg,contrast,Click on the big orange,.loc3,.loc1,.loc2,.loc4,big,modifier,orange,good,"['loc4', 'loc4', 'loc4']","[2048, 2568, 3568]",cone_small.jpg,orange_small.jpg,orange_small.jpg,orange_big.jpg,8,test8,test,206,[],34,Yes,No comment.,2,2,5.00,Female,English,No problems.,Firefox,Windows,768,1366,30.312683333333332,
470,List2,bait_big.jpg,semantic_contrast,Click on the round chocolatecandy,.loc2,.loc1,.loc3,.loc4,round,modifier,chocolatecandy,good,"['loc1', 'loc4', 'loc4']","[7768, 8760, 9144]",kitchenisland_small.jpg,film.jpg,chocolatecandy_square.jpg,chocolatecandy_round.jpg,132,filler12,filler,207,[],34,Yes,No comment.,2,2,5.00,Female,English,No problems.,Firefox,Windows,768,1366,30.312683333333332,
470,List2,lollipops_big.jpg,no_contrast,Click on the leaf,.loc3,.loc2,.loc4,.loc1,small,no_modifier,leaf,good,"['loc1', 'loc1']","[7744, 8256]",crane_small.jpg,leaf_big.jpg,flute_big.jpg,leaf_small.jpg,95,train55,train,208,[],34,Yes,No comment.,2,2,5.00,Female,English,No problems.,Firefox,Windows,768,1366,30.312683333333332,
470,List2,pinecone_big.jpg,no_contrast,Click on the boots,.loc3,.loc2,.loc1,.loc4,small,no_modifier,boots,good,"['loc2', 'loc4']","[2504, 3408]",pancakes_small.jpg,boots_big.jpg,paperbag_big.jpg,boots_small.jpg,81,train41,train,209,[],34,Yes,No comment.,2,2,5.00,Female,English,No problems.,Firefox,Windows,768,1366,30.312683333333332,
470,List2,notebook_open.jpg,semantic_control,Click on the burrito,.loc3,.loc2,.loc4,.loc1,small,no_modifier,burrito,good,"['loc4', 'loc1']","[2912, 3991]",notebook_closed.jpg,burrito_big.jpg,seesaw_big.jpg,burrito_small.jpg,276,filler156,filler,210,[],34,Yes,No comment.,2,2,5.00,Female,English,No problems.,Firefox,Windows,768,1366,30.312683333333332,
470,List2,redrose_big.jpg,contrast_control,Click on the pillow,.loc4,.loc2,.loc3,.loc1,small,no_modifier,pillow,good,"['loc4', 'loc1']","[2865, 3823]",redrose_small.jpg,pillow_big.jpg,oars_big.jpg,pillow_small.jpg,204,filler84,filler,211,[],34,Yes,No comment.,2,2,5.00,Female,English,No problems.,Firefox,Windows,768,1366,30.312683333333332,
470,List2,lizard_big.jpg,contrast,Click on the big briefcase,.loc3,.loc2,.loc4,.loc1,big,modifier,briefcase,good,"['loc3', 'loc1', 'loc1']","[2535, 3583, 4151]",carseat_small.jpg,calculator_small.jpg,briefcase_small.jpg,briefcase_big.jpg,45,train5,train,212,[],34,Yes,No comment.,2,2,5.00,Female,English,No problems.,Firefox,Windows,768,1366,30.312683333333332,
470,List2,deer_big.jpg,contrast,Click on the big rope,.loc3,.loc4,.loc2,.loc1,big,modifier,rope,good,"['loc3', 'loc1', 'loc1']","[3009, 4530, 5032]",stampset_small.jpg,ironingboard_small.jpg,rope_small.jpg,rope_big.jpg,51,train11,train,213,[],34,Yes,No comment.,2,2,5.00,Female,English,No problems.,Firefox,Windows,768,1366,30.312683333333332,
470,List2,burger_big.jpg,contrast_control,Click on the teapot,.loc1,.loc3,.loc4,.loc2,small,no_modifier,teapot,good,"['loc4', 'loc2']","[5487, 6520]",burger_small.jpg,teapot_big.jpg,funnel_big.jpg,teapot_small.jpg,184,filler64,filler,214,[],34,Yes,No comment.,2,2,5.00,Female,English,No problems.,Firefox,Windows,768,1366,30.312683333333332,
470,List2,harmonica_big.jpg,no_contrast,Click on the screen,.loc3,.loc4,.loc1,.loc2,big,no_modifier,screen,good,"['loc2', 'loc2']","[2904, 3576]",peanut_small.jpg,screen_small.jpg,necklace_small.jpg,screen_big.jpg,112,train72,train,215,[],34,Yes,No comment.,2,2,5.00,Female,English,No problems.,Firefox,Windows,768,1366,30.312683333333332,
470,List2,footstool_big.jpg,no_contrast,Click on the tacos,.loc4,.loc2,.loc1,.loc3,big,no_modifier,tacos,good,"['loc1', 'loc3']","[3751, 4832]",sunflower_small.jpg,tacos_small.jpg,nut_small.jpg,tacos_big.jpg,104,train64,train,216,[],34,Yes,No comment.,2,2,5.00,Female,English,No problems.,Firefox,Windows,768,1366,30.312683333333332,
470,List2,typewriter_old.jpg,semantic_control,Click on the peanut,.loc1,.loc4,.loc2,.loc3,small,no_modifier,peanut,good,"['loc1', 'loc3']","[2759, 3903]",typewriter_modern.jpg,peanut_big.jpg,birdcage_big.jpg,peanut_small.jpg,292,filler172,filler,217,[],34,Yes,No comment.,2,2,5.00,Female,English,No problems.,Firefox,Windows,768,1366,30.312683333333332,
470,List2,gong_big.jpg,contrast_control,Click on the microphone,.loc2,.loc1,.loc4,.loc3,small,no_modifier,microphone,good,"['loc2', 'loc3']","[1784, 3006]",gong_small.jpg,microphone_big.jpg,brochette_big.jpg,microphone_small.jpg,220,filler100,filler,218,[],34,Yes,No comment.,2,2,5.00,Female,English,No problems.,Firefox,Windows,768,1366,30.312683333333332,
470,List2,slide_big.jpg,contrast,Click on the big seahorse,.loc3,.loc1,.loc4,.loc2,big,modifier,seahorse,good,"['loc3', 'loc2', 'loc2']","[2506, 3578, 3986]",pingpong_small.jpg,almond_small.jpg,seahorse_small.jpg,seahorse_big.jpg,77,train37,train,219,[],34,Yes,No comment.,2,2,5.00,Female,English,No problems.,Firefox,Windows,768,1366,30.312683333333332,
470,List2,anchor_big.jpg,contrast,Click on the small harp,.loc2,.loc4,.loc3,.loc1,small,modifier,harp,good,"['loc3', 'loc1', 'loc1']","[3216, 4592, 5016]",fountain_small.jpg,webcam_big.jpg,harp_big.jpg,harp_small.jpg,54,train14,train,220,[],34,Yes,No comment.,2,2,5.00,Female,English,No problems.,Firefox,Windows,768,1366,30.312683333333332,
470,List2,birdcage_big.jpg,semantic_contrast,Click on the black shorts,.loc2,.loc3,.loc4,.loc1,black,modifier,shorts,good,"['loc1', 'loc1', 'loc1']","[2240, 2776, 3207]",thermos_small.jpg,zucchini.jpg,shorts_blue.jpg,shorts_black.jpg,175,filler55,filler,221,[],34,Yes,No comment.,2,2,5.00,Female,English,No problems.,Firefox,Windows,768,1366,30.312683333333332,
470,List2,opener_metal.jpg,semantic_control,Click on the greenbean,.loc2,.loc1,.loc3,.loc4,big,no_modifier,greenbean,good,"['loc4', 'loc4']","[6569, 7329]",opener_wood.jpg,greenbean_small.jpg,pepperoni_small.jpg,greenbean_big.jpg,269,filler149,filler,222,[],34,Yes,No comment.,2,2,5.00,Female,English,No problems.,Firefox,Windows,768,1366,30.312683333333332,
470,List2,ovenmit_big.jpg,no_contrast,Click on the avocado,.loc2,.loc1,.loc4,.loc3,small,no_modifier,avocado,good,"['loc2', 'loc3']","[3303, 4440]",candleholder_small.jpg,avocado_big.jpg,seahorse_big.jpg,avocado_small.jpg,117,train77,train,223,[],34,Yes,No comment.,2,2,5.00,Female,English,No problems.,Firefox,Windows,768,1366,30.312683333333332,
470,List2,frog_big.jpg,contrast_control,Click on the lime,.loc2,.loc4,.loc1,.loc3,small,no_modifier,lime,good,"['loc2', 'loc3']","[3529, 4504]",frog_small.jpg,lime_big.jpg,milkshake_big.jpg,lime_small.jpg,194,filler74,filler,224,[],34,Yes,No comment.,2,2,5.00,Female,English,No problems.,Firefox,Windows,768,1366,30.312683333333332,
470,List2,coral_big.jpg,no_contrast,Click on the elephant,.loc4,.loc1,.loc2,.loc3,big,no_modifier,elephant,good,"['loc1', 'loc3']","[4288, 5120]",garlic_small.jpg,elephant_small.jpg,butterfly_small.jpg,elephant_big.jpg,88,train48,train,225,[],34,Yes,No comment.,2,2,5.00,Female,English,No problems.,Firefox,Windows,768,1366,30.312683333333332,
470,List2,teepee_big.jpg,contrast,Click on the big hammock,.loc1,.loc3,.loc2,.loc4,big,modifier,hammock,good,"['loc1', 'loc4', 'loc4']","[4895, 5967, 6400]",bowlofoatmeal_small.jpg,pagoda_small.jpg,hammock_small.jpg,hammock_big.jpg,79,train39,train,226,[],34,Yes,No comment.,2,2,5.00,Female,English,No problems.,Firefox,Windows,768,1366,30.312683333333332,
470,List2,pants_big.jpg,no_contrast,Click on the popcorn,.loc4,.loc3,.loc1,.loc2,small,no_modifier,popcorn,good,"['loc2', 'loc2']","[2928, 3487]",firepants_small.jpg,popcorn_big.jpg,pool_big.jpg,popcorn_small.jpg,115,train75,train,227,[],34,Yes,No comment.,2,2,5.00,Female,English,No problems.,Firefox,Windows,768,1366,30.312683333333332,
470,List2,pineapple_big.jpg,contrast_control,Click on the cork,.loc1,.loc3,.loc2,.loc4,big,no_modifier,cork,good,"['loc2', 'loc4']","[3152, 4359]",pineapple_small.jpg,cork_small.jpg,toolbox_small.jpg,cork_big.jpg,201,filler81,filler,228,[],34,Yes,No comment.,2,2,5.00,Female,English,No problems.,Firefox,Windows,768,1366,30.312683333333332,
470,List2,magnifyingglass_big.jpg,no_contrast,Click on the schoolbus,.loc2,.loc1,.loc3,.loc4,big,no_modifier,schoolbus,good,"['loc2', 'loc4']","[5264, 6088]",package_small.jpg,schoolbus_small.jpg,snail_small.jpg,schoolbus_big.jpg,116,train76,train,229,[],34,Yes,No comment.,2,2,5.00,Female,English,No problems.,Firefox,Windows,768,1366,30.312683333333332,
470,List2,cinnamonroll_big.jpg,no_contrast,Click on the hotdog,.loc4,.loc3,.loc1,.loc2,small,no_modifier,hotdog,good,"['loc3', 'loc2']","[3561, 4560]",frog_small.jpg,hotdog_big.jpg,violin_big.jpg,hotdog_small.jpg,93,train53,train,230,[],34,Yes,No comment.,2,2,5.00,Female,English,No problems.,Firefox,Windows,768,1366,30.312683333333332,
470,List2,garbage_yellow.jpg,semantic_control,Click on the bathtub,.loc3,.loc1,.loc2,.loc4,big,no_modifier,bathtub,good,"['loc1', 'loc4']","[3767, 4880]",garbage_blue.jpg,bathtub_small.jpg,huntingvest_small.jpg,bathtub_big.jpg,245,filler125,filler,231,[],34,Yes,No comment.,2,2,5.00,Female,English,No problems.,Firefox,Windows,768,1366,30.312683333333332,
470,List2,computermouse_big.jpg,semantic_contrast,Click on the yellow highlighter,.loc1,.loc4,.loc2,.loc3,yellow,modifier,highlighter,good,"['loc3', 'loc3', 'loc3']","[3328, 3953, 4496]",persianrug_small.jpg,picnictable.jpg,highlighter_pink.jpg,highlighter_yellow.jpg,156,filler36,filler,232,[],34,Yes,No comment.,2,2,5.00,Female,English,No problems.,Firefox,Windows,768,1366,30.312683333333332,
470,List2,scissors_big.jpg,no_contrast,Click on the small fish,.loc1,.loc4,.loc2,.loc3,small,modifier,fish,good,"['loc2', 'loc3', 'loc3']","[1350, 3103, 3630]",rollerblades_small.jpg,bunny_big.jpg,bunny_big.jpg,fish_small.jpg,37,test37,test,233,[],34,Yes,No comment.,2,2,5.00,Female,English,No problems.,Firefox,Windows,768,1366,30.312683333333332,
470,List2,iceskates_figure.jpg,semantic_control,Click on the nutcracker,.loc2,.loc3,.loc1,.loc4,small,no_modifier,nutcracker,good,"['loc2', 'loc4']","[2489, 3424]",iceskates_hockey.jpg,nutcracker_big.jpg,wrench_big.jpg,nutcracker_small.jpg,298,filler178,filler,234,[],34,Yes,No comment.,2,2,5.00,Female,English,No problems.,Firefox,Windows,768,1366,30.312683333333332,
470,List2,molecule_big.jpg,contrast_control,Click on the deer,.loc3,.loc2,.loc4,.loc1,big,no_modifier,deer,good,"['loc2', 'loc1']","[1728, 2736]",molecule_small.jpg,deer_small.jpg,cushion_small.jpg,deer_big.jpg,231,filler111,filler,235,[],34,Yes,No comment.,2,2,5.00,Female,English,No problems.,Firefox,Windows,768,1366,30.312683333333332,
470,List2,rollingpin_big.jpg,contrast_control,Click on the tape,.loc4,.loc3,.loc1,.loc2,big,no_modifier,tape,good,"['loc2', 'loc2']","[1145, 1728]",rollingpin_small.jpg,tape_small.jpg,cookiecutter_small.jpg,tape_big.jpg,217,filler97,filler,236,[],34,Yes,No comment.,2,2,5.00,Female,English,No problems.,Firefox,Windows,768,1366,30.312683333333332,
470,List2,gun_big.jpg,contrast,Click on the big lifevest,.loc1,.loc3,.loc4,.loc2,big,modifier,lifevest,good,"['loc2', 'loc2', 'loc2']","[2800, 3295, 3647]",toolbox_small.jpg,hotairballoon_small.jpg,lifevest_small.jpg,lifevest_big.jpg,43,train3,train,237,[],34,Yes,No comment.,2,2,5.00,Female,English,No problems.,Firefox,Windows,768,1366,30.312683333333332,
470,List2,microwave_big.jpg,no_contrast,Click on the small bottle,.loc2,.loc4,.loc3,.loc1,small,modifier,bottle,good,"['loc2', 'loc3', 'loc1']","[1288, 2752, 3824]",paperclips_small.jpg,starfish_big.jpg,starfish_big.jpg,bottle_small.jpg,35,test35,test,238,[],34,Yes,No comment.,2,2,5.00,Female,English,No problems.,Firefox,Windows,768,1366,30.312683333333332,
470,List2,muffin_big.jpg,no_contrast,Click on the big corn,.loc3,.loc1,.loc2,.loc4,big,modifier,corn,good,"['loc3', 'loc3', 'loc4']","[3127, 3921, 5160]",lacrosse_small.jpg,pencil_small.jpg,pencil_small.jpg,corn_big.jpg,23,test23,test,239,[],34,Yes,No comment.,2,2,5.00,Female,English,No problems.,Firefox,Windows,768,1366,30.312683333333332,
470,List2,helmet_big.jpg,no_contrast,Click on the big hat,.loc1,.loc4,.loc2,.loc3,big,modifier,hat,good,"['loc3', 'loc1', 'loc3']","[4255, 5911, 6976]",wreath_small.jpg,onion_small.jpg,onion_small.jpg,hat_big.jpg,25,test25,test,240,[],34,Yes,No comment.,2,2,5.00,Female,English,No problems.,Firefox,Windows,768,1366,30.312683333333332,
470,List2,waterhose_big.jpg,semantic_contrast,Click on the gold bracelet,.loc3,.loc4,.loc1,.loc2,gold,modifier,bracelet,good,"['loc3', 'loc2', 'loc2']","[5352, 6503, 6961]",hubble_small.jpg,carousel.jpg,bracelet_diamond.jpg,bracelet_gold.jpg,125,filler5,filler,241,[],34,Yes,No comment.,2,2,5.00,Female,English,No problems.,Firefox,Windows,768,1366,30.312683333333332,
470,List2,fortunecookie_big.jpg,semantic_contrast,Click on the green cabbage,.loc1,.loc2,.loc4,.loc3,green,modifier,cabbage,good,"['loc1', 'loc3', 'loc3']","[3535, 4422, 4766]",muffinpan_small.jpg,milkjug.jpg,cabbage_red.jpg,cabbage_green.jpg,146,filler26,filler,242,[],34,Yes,No comment.,2,2,5.00,Female,English,No problems.,Firefox,Windows,768,1366,30.312683333333332,
470,List2,pacifier_red.jpg,semantic_control,Click on the cucumber,.loc3,.loc4,.loc2,.loc1,big,no_modifier,cucumber,good,"['loc4', 'loc1']","[2080, 3088]",pacifier_blue.jpg,cucumber_small.jpg,joystick_small.jpg,cucumber_big.jpg,249,filler129,filler,243,[],34,Yes,No comment.,2,2,5.00,Female,English,No problems.,Firefox,Windows,768,1366,30.312683333333332,
470,List2,stove_big.jpg,contrast,Click on the small tree,.loc3,.loc1,.loc4,.loc2,small,modifier,tree,good,"['loc3', 'loc2', 'loc2']","[2362, 3801, 4192]",fridge_small.jpg,tree_big.jpg,tree_big.jpg,tree_small.jpg,14,test14,test,244,[],34,Yes,No comment.,2,2,5.00,Female,English,No problems.,Firefox,Windows,768,1366,30.312683333333332,
470,List2,broccoli_big.jpg,contrast_control,Click on the hippo,.loc3,.loc4,.loc1,.loc2,big,no_modifier,hippo,good,"['loc2', 'loc2']","[1328, 2633]",broccoli_small.jpg,hippo_small.jpg,firepants_small.jpg,hippo_big.jpg,237,filler117,filler,245,[],34,Yes,No comment.,2,2,5.00,Female,English,No problems.,Firefox,Windows,768,1366,30.312683333333332,
470,List2,sandwich_big.jpg,contrast_control,Click on the barrel,.loc4,.loc2,.loc3,.loc1,big,no_modifier,barrel,good,"['loc2', 'loc1']","[3680, 4736]",sandwich_small.jpg,barrel_small.jpg,xylophone_small.jpg,barrel_big.jpg,207,filler87,filler,246,[],34,Yes,No comment.,2,2,5.00,Female,English,No problems.,Firefox,Windows,768,1366,30.312683333333332,
470,List2,bottleopener_big.jpg,semantic_contrast,Click on the blue bow,.loc3,.loc1,.loc4,.loc2,blue,modifier,bow,good,"['loc1', 'loc2', 'loc2']","[6878, 7702, 8046]",toiletplunger_small.jpg,buffalowings.jpg,bow_pink.jpg,bow_blue.jpg,177,filler57,filler,247,[],34,Yes,No comment.,2,2,5.00,Female,English,No problems.,Firefox,Windows,768,1366,30.312683333333332,
470,List2,scarf_big.jpg,contrast_control,Click on the cane,.loc2,.loc1,.loc3,.loc4,big,no_modifier,cane,good,"['loc2', 'loc4']","[2577, 3489]",scarf_small.jpg,cane_small.jpg,stampset_small.jpg,cane_big.jpg,205,filler85,filler,248,[],34,Yes,No comment.,2,2,5.00,Female,English,No problems.,Firefox,Windows,768,1366,30.312683333333332,
470,List2,playpen_big.jpg,semantic_contrast,Click on the narrow tire,.loc4,.loc2,.loc3,.loc1,narrow,modifier,tire,good,"['loc2', 'loc1', 'loc1']","[3472, 5624, 6239]",toytrain_small.jpg,wetsuit.jpg,tire_wide.jpg,tire_narrow.jpg,180,filler60,filler,249,[],34,Yes,No comment.,2,2,5.00,Female,English,No problems.,Firefox,Windows,768,1366,30.312683333333332,
470,List2,greentape_big.jpg,semantic_contrast,Click on the green lightbulb,.loc4,.loc2,.loc3,.loc1,green,modifier,lightbulb,good,"['loc2', 'loc1', 'loc1']","[2128, 3056, 3312]",redbean_small.jpg,russiandoll.jpg,lightbulb_white.jpg,lightbulb_green.jpg,164,filler44,filler,250,[],34,Yes,No comment.,2,2,5.00,Female,English,No problems.,Firefox,Windows,768,1366,30.312683333333332,
470,List2,panflute_big.jpg,contrast_control,Click on the caterpillar,.loc2,.loc3,.loc1,.loc4,big,no_modifier,caterpillar,good,"['loc4', 'loc4']","[2400, 3080]",panflute_small.jpg,caterpillar_small.jpg,crane_small.jpg,caterpillar_big.jpg,229,filler109,filler,251,[],34,Yes,No comment.,2,2,5.00,Female,English,No problems.,Firefox,Windows,768,1366,30.312683333333332,
470,List2,barberchair_big.jpg,semantic_contrast,Click on the pink eraser,.loc3,.loc1,.loc4,.loc2,pink,modifier,eraser,good,"['loc1', 'loc2', 'loc2']","[3128, 3976, 4424]",thimble_small.jpg,streetlamp.jpg,eraser_redandblue.jpg,eraser_pink.jpg,174,filler54,filler,252,[],34,Yes,No comment.,2,2,5.00,Female,English,No problems.,Firefox,Windows,768,1366,30.312683333333332,
470,List2,puppy_big.jpg,contrast_control,Click on the bone,.loc2,.loc1,.loc3,.loc4,big,no_modifier,bone,good,"['loc4', 'loc4']","[2976, 3536]",puppy_small.jpg,bone_small.jpg,pinkdice_small.jpg,bone_big.jpg,203,filler83,filler,253,[],34,Yes,No comment.,2,2,5.00,Female,English,No problems.,Firefox,Windows,768,1366,30.312683333333332,
470,List2,beachtowels_big.jpg,semantic_contrast,Click on the dog robot,.loc3,.loc2,.loc4,.loc1,dog,modifier,robot,good,"['loc4', 'loc1', 'loc1']","[4616, 5695, 6087]",boxcutter_small.jpg,flipflops.jpg,robot_person.jpg,robot_dog.jpg,135,filler15,filler,254,[],34,Yes,No comment.,2,2,5.00,Female,English,No problems.,Firefox,Windows,768,1366,30.312683333333332,
470,List2,jacket_big.jpg,contrast_control,Click on the scissors,.loc1,.loc3,.loc4,.loc2,big,no_modifier,scissors,good,"['loc2', 'loc2']","[2768, 3344]",jacket_small.jpg,scissors_small.jpg,toyoctopus_small.jpg,scissors_big.jpg,197,filler77,filler,255,[],34,Yes,No comment.,2,2,5.00,Female,English,No problems.,Firefox,Windows,768,1366,30.312683333333332,
470,List2,pingpong_big.jpg,contrast_control,Click on the dolphin,.loc3,.loc4,.loc1,.loc2,small,no_modifier,dolphin,good,"['loc4', 'loc2']","[2488, 3816]",pingpong_small.jpg,dolphin_big.jpg,magnifyingglass_big.jpg,dolphin_small.jpg,202,filler82,filler,256,[],34,Yes,No comment.,2,2,5.00,Female,English,No problems.,Firefox,Windows,768,1366,30.312683333333332,
470,List2,pinacolada_big.jpg,semantic_contrast,Click on the spotted cow,.loc2,.loc4,.loc3,.loc1,spotted,modifier,cow,good,"['loc1', 'loc1', 'loc1']","[6207, 7880, 8776]",honeystick_small.jpg,buddha.jpg,cow_brown.jpg,cow_spotted.jpg,123,filler3,filler,257,[],34,Yes,No comment.,2,2,5.00,Female,English,No problems.,Firefox,Windows,768,1366,30.312683333333332,
470,List2,sword_fantasy.jpg,semantic_control,Click on the pinecone,.loc2,.loc4,.loc1,.loc3,big,no_modifier,pinecone,good,"['loc3', 'loc3']","[3615, 4263]",sword_thin.jpg,pinecone_small.jpg,measuringcups_small.jpg,pinecone_big.jpg,261,filler141,filler,258,[],34,Yes,No comment.,2,2,5.00,Female,English,No problems.,Firefox,Windows,768,1366,30.312683333333332,
470,List2,cigarette_big.jpg,semantic_contrast,Click on the open coffin,.loc1,.loc2,.loc3,.loc4,open,modifier,coffin,good,"['loc1', 'loc4', 'loc4']","[6999, 8103, 8607]",braidedloaf_small.jpg,fruitcake.jpg,coffin_closed.jpg,coffin_open.jpg,140,filler20,filler,259,[],34,Yes,No comment.,2,2,5.00,Female,English,No problems.,Firefox,Windows,768,1366,30.312683333333332,
470,List2,clog_big.jpg,no_contrast,Click on the chair,.loc1,.loc3,.loc4,.loc2,big,no_modifier,chair,good,"['loc2', 'loc2']","[2527, 3136]",motorcycle_small.jpg,chair_small.jpg,checkerboard_small.jpg,chair_big.jpg,84,train44,train,260,[],34,Yes,No comment.,2,2,5.00,Female,English,No problems.,Firefox,Windows,768,1366,30.312683333333332,
470,List2,broom_big.jpg,contrast_control,Click on the stapler,.loc2,.loc1,.loc3,.loc4,big,no_modifier,stapler,good,"['loc4', 'loc4']","[4303, 5055]",broom_small.jpg,stapler_small.jpg,lacrosse_small.jpg,stapler_big.jpg,181,filler61,filler,261,[],34,Yes,No comment.,2,2,5.00,Female,English,No problems.,Firefox,Windows,768,1366,30.312683333333332,
470,List2,flower_lily.jpg,semantic_control,Click on the stingray,.loc1,.loc4,.loc3,.loc2,small,no_modifier,stingray,good,"['loc1', 'loc2']","[9695, 11744]",flower_dahlia.jpg,stingray_big.jpg,castanets_big.jpg,stingray_small.jpg,286,filler166,filler,262,[],34,Yes,No comment.,2,2,5.00,Female,English,No problems.,Firefox,Windows,768,1366,30.312683333333332,
470,List2,greenbean_big.jpg,no_contrast,Click on the flashlight,.loc4,.loc2,.loc3,.loc1,small,no_modifier,flashlight,good,"['loc2', 'loc1']","[1816, 3031]",hourglass_small.jpg,flashlight_big.jpg,door_big.jpg,flashlight_small.jpg,89,train49,train,263,[],34,Yes,No comment.,2,2,5.00,Female,English,No problems.,Firefox,Windows,768,1366,30.312683333333332,
470,List2,chips_stacked.jpg,semantic_control,Click on the cinnamonroll,.loc2,.loc1,.loc4,.loc3,big,no_modifier,cinnamonroll,good,"['loc1', 'loc3']","[2977, 3825]",chips_strewn.jpg,cinnamonroll_small.jpg,corndog_small.jpg,cinnamonroll_big.jpg,273,filler153,filler,264,[],34,Yes,No comment.,2,2,5.00,Female,English,No problems.,Firefox,Windows,768,1366,30.312683333333332,
470,List2,bill_big.jpg,contrast,Click on the big camera,.loc1,.loc2,.loc4,.loc3,big,modifier,camera,good,"['loc1', 'loc3', 'loc3']","[7200, 8128, 8527]",wheelchair_small.jpg,camera_small.jpg,camera_small.jpg,camera_big.jpg,13,test13,test,265,[],34,Yes,No comment.,2,2,5.00,Female,English,No problems.,Firefox,Windows,768,1366,30.312683333333332,
470,List2,scarf_big.jpg,contrast,Click on the small eagle,.loc2,.loc3,.loc4,.loc1,small,modifier,eagle,good,"['loc1', 'loc1', 'loc1']","[2383, 3031, 3543]",horse_small.jpg,scotchtape_big.jpg,eagle_big.jpg,eagle_small.jpg,70,train30,train,266,[],34,Yes,No comment.,2,2,5.00,Female,English,No problems.,Firefox,Windows,768,1366,30.312683333333332,
470,List2,beaver_big.jpg,contrast,Click on the small airplane,.loc4,.loc2,.loc1,.loc3,small,modifier,airplane,good,"['loc2', 'loc3', 'loc3']","[1472, 2800, 3415]",kangaroo_small.jpg,crab_big.jpg,airplane_big.jpg,airplane_small.jpg,58,train18,train,267,[],34,Yes,No comment.,2,2,5.00,Female,English,No problems.,Firefox,Windows,768,1366,30.312683333333332,
470,List2,sushi_big.jpg,contrast_control,Click on the cone,.loc2,.loc3,.loc4,.loc1,small,no_modifier,cone,good,"['loc1', 'loc1']","[1904, 2543]",sushi_small.jpg,cone_big.jpg,stroller_big.jpg,cone_small.jpg,208,filler88,filler,268,[],34,Yes,No comment.,2,2,5.00,Female,English,No problems.,Firefox,Windows,768,1366,30.312683333333332,
470,List2,faucet_big.jpg,contrast_control,Click on the recliner,.loc2,.loc3,.loc4,.loc1,small,no_modifier,recliner,good,"['loc2', 'loc1']","[5120, 6191]",faucet_small.jpg,recliner_big.jpg,shapestoy_big.jpg,recliner_small.jpg,192,filler72,filler,269,[],34,Yes,No comment.,2,2,5.00,Female,English,No problems.,Firefox,Windows,768,1366,30.312683333333332,
470,List2,leatherman_purple.jpg,semantic_control,Click on the ovenmit,.loc3,.loc2,.loc1,.loc4,big,no_modifier,ovenmit,good,"['loc4', 'loc4']","[2336, 2976]",leatherman_yellow.jpg,ovenmit_small.jpg,rockclimbingshoe_small.jpg,ovenmit_big.jpg,297,filler177,filler,270,[],34,Yes,No comment.,2,2,5.00,Female,English,No problems.,Firefox,Windows,768,1366,30.312683333333332,
470,List2,dalmatian_big.jpg,no_contrast,Click on the paperclip,.loc2,.loc4,.loc1,.loc3,big,no_modifier,paperclip,good,"['loc3', 'loc3']","[5905, 6576]",blueberries_small.jpg,paperclip_small.jpg,airplane_small.jpg,paperclip_big.jpg,98,train58,train,271,[],34,Yes,No comment.,2,2,5.00,Female,English,No problems.,Firefox,Windows,768,1366,30.312683333333332,
470,List2,barrel_big.jpg,contrast,Click on the small key,.loc1,.loc2,.loc4,.loc3,small,modifier,key,good,"['loc2', 'loc3', 'loc3']","[2793, 4032, 4472]",compass_small.jpg,key_big.jpg,key_big.jpg,key_small.jpg,7,test7,test,272,[],34,Yes,No comment.,2,2,5.00,Female,English,No problems.,Firefox,Windows,768,1366,30.312683333333332,
470,List2,brusselsprout_big.jpg,semantic_contrast,Click on the tricolor pasta,.loc3,.loc4,.loc1,.loc2,tricolor,modifier,pasta,good,"['loc1', 'loc2', 'loc2']","[5488, 6504, 6751]",lemur_small.jpg,mortarandpestle.jpg,pasta_tortellini.jpg,pasta_tricolor.jpg,137,filler17,filler,273,[],34,Yes,No comment.,2,2,5.00,Female,English,No problems.,Firefox,Windows,768,1366,30.312683333333332,
470,List2,hairclip_big.jpg,contrast_control,Click on the frenchfries,.loc3,.loc1,.loc2,.loc4,big,no_modifier,frenchfries,good,"['loc4', 'loc4']","[2047, 2551]",hairclip_small.jpg,frenchfries_small.jpg,blender_small.jpg,frenchfries_big.jpg,235,filler115,filler,274,[],34,Yes,No comment.,2,2,5.00,Female,English,No problems.,Firefox,Windows,768,1366,30.312683333333332,
470,List2,tennisball_big.jpg,contrast_control,Click on the lion,.loc1,.loc4,.loc2,.loc3,small,no_modifier,lion,good,"['loc1', 'loc3']","[2719, 3863]",tennisball_small.jpg,lion_big.jpg,harmonica_big.jpg,lion_small.jpg,240,filler120,filler,275,[],34,Yes,No comment.,2,2,5.00,Female,English,No problems.,Firefox,Windows,768,1366,30.312683333333332,
470,List2,dalmatian_big.jpg,contrast_control,Click on the dinosaur,.loc1,.loc3,.loc2,.loc4,big,no_modifier,dinosaur,good,"['loc3', 'loc4']","[2568, 3759]",dalmatian_small.jpg,dinosaur_small.jpg,screwdriver_small.jpg,dinosaur_big.jpg,191,filler71,filler,276,[],34,Yes,No comment.,2,2,5.00,Female,English,No problems.,Firefox,Windows,768,1366,30.312683333333332,
470,List2,dinosaur_big.jpg,no_contrast,Click on the big dog,.loc2,.loc4,.loc1,.loc3,big,modifier,dog,good,"['loc3', 'loc3', 'loc3']","[9250, 10536, 11040]",palette_small.jpg,bike_small.jpg,bike_small.jpg,dog_big.jpg,31,test31,test,277,[],34,Yes,No comment.,2,2,5.00,Female,English,No problems.,Firefox,Windows,768,1366,30.312683333333332,
470,List2,croissant_big.jpg,contrast_control,Click on the soap,.loc4,.loc3,.loc2,.loc1,big,no_modifier,soap,good,"['loc3', 'loc1']","[3576, 4664]",croissant_small.jpg,soap_small.jpg,sportsbag_small.jpg,soap_big.jpg,189,filler69,filler,278,[],34,Yes,No comment.,2,2,5.00,Female,English,No problems.,Firefox,Windows,768,1366,30.312683333333332,
470,List2,tambourine_big.jpg,contrast_control,Click on the basket,.loc1,.loc2,.loc4,.loc3,big,no_modifier,basket,good,"['loc2', 'loc3']","[2047, 3624]",tambourine_small.jpg,basket_small.jpg,toyhammer_small.jpg,basket_big.jpg,209,filler89,filler,279,[],34,Yes,No comment.,2,2,5.00,Female,English,No problems.,Firefox,Windows,768,1366,30.312683333333332,
470,List2,scroll_writing.jpg,semantic_control,Click on the hawk,.loc2,.loc1,.loc4,.loc3,big,no_modifier,hawk,good,"['loc3', 'loc3']","[2320, 2935]",scroll_blank.jpg,hawk_small.jpg,redkettle_small.jpg,hawk_big.jpg,251,filler131,filler,280,[],34,Yes,No comment.,2,2,5.00,Female,English,No problems.,Firefox,Windows,768,1366,30.312683333333332,
470,List2,yoyo_big.jpg,contrast_control,Click on the dart,.loc3,.loc4,.loc1,.loc2,small,no_modifier,dart,good,"['loc3', 'loc2']","[2783, 4056]",yoyo_small.jpg,dart_big.jpg,creamer_big.jpg,dart_small.jpg,230,filler110,filler,281,[],34,Yes,No comment.,2,2,5.00,Female,English,No problems.,Firefox,Windows,768,1366,30.312683333333332,
470,List2,orangejuice_stemglass.jpg,semantic_control,Click on the blueberries,.loc4,.loc1,.loc3,.loc2,small,no_modifier,blueberries,good,"['loc2', 'loc2']","[4856, 5351]",orangejuice_tallglass.jpg,blueberries_big.jpg,robe_big.jpg,blueberries_small.jpg,278,filler158,filler,282,[],34,Yes,No comment.,2,2,5.00,Female,English,No problems.,Firefox,Windows,768,1366,30.312683333333332,
470,List2,babybottle_big.jpg,semantic_contrast,Click on the yellow watch,.loc4,.loc1,.loc3,.loc2,yellow,modifier,watch,good,"['loc4', 'loc2', 'loc2']","[2896, 3727, 4159]",snowshoes_small.jpg,staircase.jpg,watch_brown.jpg,watch_yellow.jpg,173,filler53,filler,283,[],34,Yes,No comment.,2,2,5.00,Female,English,No problems.,Firefox,Windows,768,1366,30.312683333333332,
