workerid,proliferate.condition,big_filler,cond,instruction,loc_big_filler,loc_contrast,loc_small_filler,loc_target_pic,modifier,modifier_use,noun,pragContext,response,response_times,small_filler,target_contrast_bad,target_contrast_good,target_pic,trial,trialID,trialType,trial_number,catch_trials,subject_information.age,subject_information.asses,subject_information.comments,subject_information.education,subject_information.enjoyment,subject_information.fairprice,subject_information.gender,subject_information.language,subject_information.problems,system.Browser,system.OS,system.screenH,system.screenW,time_in_minutes,error
730,List2,carkeys_big.jpg,semantic_contrast,Click on the coffee cup,.loc4,.loc1,.loc3,.loc2,coffee,modifier,cup,bad,"['loc1', 'loc2', 'loc2']","[2772, 5378, 7484]",oven_small.jpg,icecubetray.jpg,cup_plastic.jpg,cup_coffee.jpg,149,filler29,filler,3,[],24,Yes,N/A,3,1,The price was fine.,Male,English,N/A,Chrome,Mac,900,1440,19.4816,
730,List2,victrola_big.jpg,contrast,Click on the small butterfly,.loc4,.loc1,.loc2,.loc3,small,modifier,butterfly,bad,"['loc4', 'loc3', 'loc3']","[2980, 5034, 6219]",bed_small.jpg,parkingmeter_big.jpg,butterfly_big.jpg,butterfly_small.jpg,48,train8,train,4,[],24,Yes,N/A,3,1,The price was fine.,Male,English,N/A,Chrome,Mac,900,1440,19.4816,
730,List2,muffin_big.jpg,no_contrast,Click on the big corn,.loc3,.loc2,.loc1,.loc4,big,modifier,corn,bad,"['loc3', 'loc1', 'loc4']","[3457, 5905, 7271]",lacrosse_small.jpg,pencil_small.jpg,pencil_small.jpg,corn_big.jpg,23,test23,test,5,[],24,Yes,N/A,3,1,The price was fine.,Male,English,N/A,Chrome,Mac,900,1440,19.4816,
730,List2,pineapple_big.jpg,contrast,Click on the small igloo,.loc3,.loc2,.loc1,.loc4,small,modifier,igloo,bad,"['loc4', 'loc1', 'loc4']","[1688, 3678, 5168]",snowflake_small.jpg,canon_big.jpg,igloo_big.jpg,igloo_small.jpg,78,train38,train,6,[],24,Yes,N/A,3,1,The price was fine.,Male,English,N/A,Chrome,Mac,900,1440,19.4816,
730,List2,sponge_big.jpg,no_contrast,Click on the small monkey,.loc4,.loc2,.loc3,.loc1,small,modifier,monkey,bad,"['loc2', 'loc1', 'loc1']","[2041, 4367, 5657]",sportsbag_small.jpg,grapes_big.jpg,grapes_big.jpg,monkey_small.jpg,39,test39,test,7,[],24,Yes,N/A,3,1,The price was fine.,Male,English,N/A,Chrome,Mac,900,1440,19.4816,
730,List2,coconut_big.jpg,contrast_control,Click on the piano,.loc1,.loc3,.loc2,.loc4,big,no_modifier,piano,bad,"['loc1', 'loc3']","[1517, 3728]",coconut_small.jpg,piano_small.jpg,paperclips_small.jpg,piano_big.jpg,187,filler67,filler,8,[],24,Yes,N/A,3,1,The price was fine.,Male,English,N/A,Chrome,Mac,900,1440,19.4816,
730,List2,footstool_big.jpg,no_contrast,Click on the tacos,.loc4,.loc2,.loc3,.loc1,big,no_modifier,tacos,bad,"['loc1', 'loc1']","[2086, 4953]",sunflower_small.jpg,tacos_small.jpg,nut_small.jpg,tacos_big.jpg,104,train64,train,9,[],24,Yes,N/A,3,1,The price was fine.,Male,English,N/A,Chrome,Mac,900,1440,19.4816,
730,List2,coffeemaker_orange.jpg,semantic_control,Click on the button,.loc3,.loc4,.loc2,.loc1,big,no_modifier,button,bad,"['loc1', 'loc1']","[1517, 3199]",coffeemaker_blue.jpg,button_small.jpg,congadrum_small.jpg,button_big.jpg,241,filler121,filler,10,[],24,Yes,N/A,3,1,The price was fine.,Male,English,N/A,Chrome,Mac,900,1440,19.4816,
730,List2,broom_big.jpg,no_contrast,Click on the bagel,.loc2,.loc1,.loc3,.loc4,big,no_modifier,bagel,bad,"['loc1', 'loc1']","[1713, 3047]",nutcracker_small.jpg,bagel_small.jpg,igloo_small.jpg,bagel_big.jpg,118,train78,train,11,[],24,Yes,N/A,3,1,The price was fine.,Male,English,N/A,Chrome,Mac,900,1440,19.4816,
730,List2,pineapple_big.jpg,contrast_control,Click on the cork,.loc1,.loc4,.loc3,.loc2,big,no_modifier,cork,bad,"['loc1', 'loc4']","[1633, 3951]",pineapple_small.jpg,cork_small.jpg,toolbox_small.jpg,cork_big.jpg,201,filler81,filler,12,[],24,Yes,N/A,3,1,The price was fine.,Male,English,N/A,Chrome,Mac,900,1440,19.4816,
730,List2,glasses_tortoise.jpg,semantic_control,Click on the couch,.loc3,.loc4,.loc1,.loc2,small,no_modifier,couch,bad,"['loc2', 'loc2']","[1544, 2625]",glasses_blue.jpg,couch_big.jpg,cheeseplate_big.jpg,couch_small.jpg,300,filler180,filler,13,[],24,Yes,N/A,3,1,The price was fine.,Male,English,N/A,Chrome,Mac,900,1440,19.4816,
730,List2,ostrich_big.jpg,no_contrast,Click on the buffalo,.loc4,.loc2,.loc1,.loc3,big,no_modifier,buffalo,bad,"['loc3', 'loc3']","[2078, 3046]",potato_small.jpg,buffalo_small.jpg,mask_small.jpg,buffalo_big.jpg,82,train42,train,14,[],24,Yes,N/A,3,1,The price was fine.,Male,English,N/A,Chrome,Mac,900,1440,19.4816,
730,List2,milkshake_big.jpg,contrast,Click on the big turtle,.loc1,.loc4,.loc3,.loc2,big,modifier,turtle,bad,"['loc2', 'loc2', 'loc2']","[1601, 2710, 3558]",baseballglove_small.jpg,turtle_small.jpg,turtle_small.jpg,turtle_big.jpg,12,test12,test,15,[],24,Yes,N/A,3,1,The price was fine.,Male,English,N/A,Chrome,Mac,900,1440,19.4816,
730,List2,greentape_big.jpg,semantic_contrast,Click on the green lightbulb,.loc2,.loc1,.loc3,.loc4,green,modifier,lightbulb,bad,"['loc2', 'loc4', 'loc4']","[1473, 3127, 4159]",redbean_small.jpg,russiandoll.jpg,lightbulb_white.jpg,lightbulb_green.jpg,164,filler44,filler,16,[],24,Yes,N/A,3,1,The price was fine.,Male,English,N/A,Chrome,Mac,900,1440,19.4816,
730,List2,clog_big.jpg,no_contrast,Click on the chair,.loc4,.loc1,.loc2,.loc3,big,no_modifier,chair,bad,"['loc3', 'loc3']","[1577, 2714]",motorcycle_small.jpg,chair_small.jpg,checkerboard_small.jpg,chair_big.jpg,84,train44,train,17,[],24,Yes,N/A,3,1,The price was fine.,Male,English,N/A,Chrome,Mac,900,1440,19.4816,
730,List2,pasta_ravioli.jpg,semantic_control,Click on the package,.loc4,.loc3,.loc2,.loc1,small,no_modifier,package,bad,"['loc3', 'loc3']","[1285, 2262]",pasta_spaghetti.jpg,package_big.jpg,bloodymary_big.jpg,package_small.jpg,296,filler176,filler,18,[],24,Yes,N/A,3,1,The price was fine.,Male,English,N/A,Chrome,Mac,900,1440,19.4816,
730,List2,seal_red.jpg,semantic_control,Click on the motorcycle,.loc4,.loc1,.loc3,.loc2,small,no_modifier,motorcycle,bad,"['loc1', 'loc1']","[1449, 2346]",seal_green.jpg,motorcycle_big.jpg,fortunecookie_big.jpg,motorcycle_small.jpg,264,filler144,filler,19,[],24,Yes,N/A,3,1,The price was fine.,Male,English,N/A,Chrome,Mac,900,1440,19.4816,
730,List2,tambourine_big.jpg,contrast_control,Click on the basket,.loc4,.loc2,.loc1,.loc3,big,no_modifier,basket,bad,"['loc3', 'loc3']","[1461, 2486]",tambourine_small.jpg,basket_small.jpg,toyhammer_small.jpg,basket_big.jpg,209,filler89,filler,20,[],24,Yes,N/A,3,1,The price was fine.,Male,English,N/A,Chrome,Mac,900,1440,19.4816,
730,List2,parfait_stemglass.jpg,semantic_control,Click on the eggs,.loc1,.loc2,.loc4,.loc3,small,no_modifier,eggs,bad,"['loc2', 'loc2']","[1561, 2518]",parfait_cup.jpg,eggs_big.jpg,pinata_big.jpg,eggs_small.jpg,242,filler122,filler,21,[],24,Yes,N/A,3,1,The price was fine.,Male,English,N/A,Chrome,Mac,900,1440,19.4816,
730,List2,birdhouse_onstand.jpg,semantic_control,Click on the musicsheet,.loc2,.loc1,.loc3,.loc4,big,no_modifier,musicsheet,bad,"['loc2', 'loc4']","[1577, 3291]",birdhouse_plain.jpg,musicsheet_small.jpg,screw_small.jpg,musicsheet_big.jpg,299,filler179,filler,22,[],24,Yes,N/A,3,1,The price was fine.,Male,English,N/A,Chrome,Mac,900,1440,19.4816,
730,List2,panflute_big.jpg,contrast_control,Click on the caterpillar,.loc1,.loc4,.loc2,.loc3,big,no_modifier,caterpillar,bad,"['loc1', 'loc3']","[1709, 3142]",panflute_small.jpg,caterpillar_small.jpg,crane_small.jpg,caterpillar_big.jpg,229,filler109,filler,23,[],24,Yes,N/A,3,1,The price was fine.,Male,English,N/A,Chrome,Mac,900,1440,19.4816,
730,List2,sewingmachine_big.jpg,contrast_control,Click on the nest,.loc4,.loc2,.loc1,.loc3,small,no_modifier,nest,bad,"['loc2', 'loc2']","[1845, 3038]",sewingmachine_small.jpg,nest_big.jpg,victrola_big.jpg,nest_small.jpg,206,filler86,filler,24,[],24,Yes,N/A,3,1,The price was fine.,Male,English,N/A,Chrome,Mac,900,1440,19.4816,
730,List2,register_new.jpg,semantic_control,Click on the origami,.loc4,.loc2,.loc3,.loc1,big,no_modifier,origami,bad,"['loc1', 'loc1']","[1385, 2273]",register_old.jpg,origami_small.jpg,meat_small.jpg,origami_big.jpg,263,filler143,filler,25,[],24,Yes,N/A,3,1,The price was fine.,Male,English,N/A,Chrome,Mac,900,1440,19.4816,
730,List2,blackboard_big.jpg,contrast,Click on the big jeep,.loc3,.loc2,.loc1,.loc4,big,modifier,jeep,bad,"['loc3', 'loc4', 'loc4']","[1341, 3022, 3895]",candyapple_small.jpg,snowboard_small.jpg,jeep_small.jpg,jeep_big.jpg,63,train23,train,26,[],24,Yes,N/A,3,1,The price was fine.,Male,English,N/A,Chrome,Mac,900,1440,19.4816,
730,List2,gumballmachine_big.jpg,no_contrast,Click on the discoball,.loc1,.loc3,.loc2,.loc4,small,no_modifier,discoball,bad,"['loc2', 'loc3']","[1766, 3311]",chowchow_small.jpg,discoball_big.jpg,beetle_big.jpg,discoball_small.jpg,87,train47,train,27,[],24,Yes,N/A,3,1,The price was fine.,Male,English,N/A,Chrome,Mac,900,1440,19.4816,
730,List2,computermouse_big.jpg,semantic_contrast,Click on the yellow highlighter,.loc4,.loc2,.loc1,.loc3,yellow,modifier,highlighter,bad,"['loc2', 'loc3', 'loc3']","[1750, 2919, 3527]",persianrug_small.jpg,picnictable.jpg,highlighter_pink.jpg,highlighter_yellow.jpg,156,filler36,filler,28,[],24,Yes,N/A,3,1,The price was fine.,Male,English,N/A,Chrome,Mac,900,1440,19.4816,
730,List2,candle_big.jpg,contrast_control,Click on the baseballglove,.loc3,.loc2,.loc1,.loc4,small,no_modifier,baseballglove,bad,"['loc3', 'loc2']","[1337, 2815]",candle_small.jpg,baseballglove_big.jpg,africanmask_big.jpg,baseballglove_small.jpg,212,filler92,filler,29,[],24,Yes,N/A,3,1,The price was fine.,Male,English,N/A,Chrome,Mac,900,1440,19.4816,
730,List2,button_big.jpg,contrast,Click on the big alarmclock,.loc3,.loc4,.loc1,.loc2,big,modifier,alarmclock,bad,"['loc3', 'loc4', 'loc2']","[976, 2845, 3943]",artichoke_small.jpg,earth_small.jpg,alarmclock_small.jpg,alarmclock_big.jpg,61,train21,train,30,[],24,Yes,N/A,3,1,The price was fine.,Male,English,N/A,Chrome,Mac,900,1440,19.4816,
730,List2,magnifyingglass_big.jpg,no_contrast,Click on the schoolbus,.loc2,.loc4,.loc1,.loc3,big,no_modifier,schoolbus,bad,"['loc1', 'loc3']","[1321, 2554]",package_small.jpg,schoolbus_small.jpg,snail_small.jpg,schoolbus_big.jpg,116,train76,train,31,[],24,Yes,N/A,3,1,The price was fine.,Male,English,N/A,Chrome,Mac,900,1440,19.4816,
730,List2,stove_big.jpg,contrast_control,Click on the gun,.loc1,.loc4,.loc2,.loc3,big,no_modifier,gun,bad,"['loc1', 'loc3']","[1573, 2478]",stove_small.jpg,gun_small.jpg,bush_small.jpg,gun_big.jpg,223,filler103,filler,32,[],24,Yes,N/A,3,1,The price was fine.,Male,English,N/A,Chrome,Mac,900,1440,19.4816,
730,List2,brochette_big.jpg,contrast,Click on the small necklace,.loc1,.loc3,.loc4,.loc2,small,modifier,necklace,bad,"['loc1', 'loc2', 'loc2']","[1432, 4776, 5680]",kazoo_small.jpg,matzah_big.jpg,necklace_big.jpg,necklace_small.jpg,72,train32,train,33,[],24,Yes,N/A,3,1,The price was fine.,Male,English,N/A,Chrome,Mac,900,1440,19.4816,
730,List2,beaver_big.jpg,contrast,Click on the small airplane,.loc2,.loc4,.loc3,.loc1,small,modifier,airplane,bad,"['loc2', 'loc2', 'loc1']","[1429, 3439, 4892]",kangaroo_small.jpg,crab_big.jpg,airplane_big.jpg,airplane_small.jpg,58,train18,train,34,[],24,Yes,N/A,3,1,The price was fine.,Male,English,N/A,Chrome,Mac,900,1440,19.4816,
730,List2,croissant_big.jpg,no_contrast,Click on the shark,.loc1,.loc4,.loc3,.loc2,big,no_modifier,shark,bad,"['loc2', 'loc2']","[1938, 2539]",waffle_small.jpg,shark_small.jpg,domino_small.jpg,shark_big.jpg,102,train62,train,35,[],24,Yes,N/A,3,1,The price was fine.,Male,English,N/A,Chrome,Mac,900,1440,19.4816,
730,List2,seesaw_big.jpg,semantic_contrast,Click on the barn mailbox,.loc2,.loc4,.loc1,.loc3,barn,modifier,mailbox,bad,"['loc3', 'loc3', 'loc3']","[1557, 2478, 4151]",pitchfork_small.jpg,pinkshoes.jpg,mailbox_cow.jpg,mailbox_barn.jpg,157,filler37,filler,36,[],24,Yes,N/A,3,1,The price was fine.,Male,English,N/A,Chrome,Mac,900,1440,19.4816,
730,List2,butternutsquash_big.jpg,semantic_contrast,Click on the heart candy,.loc1,.loc2,.loc4,.loc3,heart,modifier,candy,bad,"['loc3', 'loc3', 'loc3']","[1725, 2806, 3534]",leopard_small.jpg,frame.jpg,candy_orange.jpg,candy_heart.jpg,138,filler18,filler,37,[],24,Yes,N/A,3,1,The price was fine.,Male,English,N/A,Chrome,Mac,900,1440,19.4816,
730,List2,burger_big.jpg,contrast_control,Click on the teapot,.loc3,.loc2,.loc1,.loc4,small,no_modifier,teapot,bad,"['loc3', 'loc2']","[1177, 2406]",burger_small.jpg,teapot_big.jpg,funnel_big.jpg,teapot_small.jpg,184,filler64,filler,38,[],24,Yes,N/A,3,1,The price was fine.,Male,English,N/A,Chrome,Mac,900,1440,19.4816,
730,List2,ovenmit_big.jpg,no_contrast,Click on the avocado,.loc2,.loc3,.loc1,.loc4,small,no_modifier,avocado,bad,"['loc3', 'loc3']","[1072, 1672]",candleholder_small.jpg,avocado_big.jpg,seahorse_big.jpg,avocado_small.jpg,117,train77,train,39,[],24,Yes,N/A,3,1,The price was fine.,Male,English,N/A,Chrome,Mac,900,1440,19.4816,
730,List2,fortunecookie_big.jpg,semantic_contrast,Click on the green cabbage,.loc2,.loc4,.loc1,.loc3,green,modifier,cabbage,bad,"['loc3', 'loc3', 'loc3']","[1072, 2606, 3494]",muffinpan_small.jpg,milkjug.jpg,cabbage_red.jpg,cabbage_green.jpg,146,filler26,filler,40,[],24,Yes,N/A,3,1,The price was fine.,Male,English,N/A,Chrome,Mac,900,1440,19.4816,
730,List2,kettle_silver.jpg,semantic_control,Click on the bowtie,.loc1,.loc2,.loc4,.loc3,big,no_modifier,bowtie,bad,"['loc3', 'loc3']","[1240, 2478]",kettle_gold.jpg,bowtie_small.jpg,pomegranate_small.jpg,bowtie_big.jpg,277,filler157,filler,41,[],24,Yes,N/A,3,1,The price was fine.,Male,English,N/A,Chrome,Mac,900,1440,19.4816,
730,List2,spoon_big.jpg,contrast,Click on the big pool,.loc4,.loc2,.loc3,.loc1,big,modifier,pool,bad,"['loc1', 'loc1', 'loc1']","[1593, 2962, 3647]",cookiecutter_small.jpg,clover_small.jpg,pool_small.jpg,pool_big.jpg,75,train35,train,42,[],24,Yes,N/A,3,1,The price was fine.,Male,English,N/A,Chrome,Mac,900,1440,19.4816,
730,List2,babyswing_big.jpg,semantic_contrast,Click on the green bellpeppers,.loc3,.loc4,.loc2,.loc1,green,modifier,bellpeppers,bad,"['loc1', 'loc1', 'loc1']","[1521, 2298, 3019]",redkettle_small.jpg,dogbones.jpg,bellpeppers_red.jpg,bellpeppers_green.jpg,131,filler11,filler,43,[],24,Yes,N/A,3,1,The price was fine.,Male,English,N/A,Chrome,Mac,900,1440,19.4816,
730,List2,tennisball_big.jpg,contrast_control,Click on the lion,.loc3,.loc2,.loc1,.loc4,small,no_modifier,lion,bad,"['loc3', 'loc2']","[1381, 2261]",tennisball_small.jpg,lion_big.jpg,harmonica_big.jpg,lion_small.jpg,240,filler120,filler,44,[],24,Yes,N/A,3,1,The price was fine.,Male,English,N/A,Chrome,Mac,900,1440,19.4816,
730,List2,desk_big.jpg,contrast,Click on the big grapes,.loc1,.loc4,.loc2,.loc3,big,modifier,grapes,bad,"['loc3', 'loc3', 'loc3']","[1473, 2330, 3671]",shears_small.jpg,grapes_small.jpg,grapes_small.jpg,grapes_big.jpg,19,test19,test,45,[],24,Yes,N/A,3,1,The price was fine.,Male,English,N/A,Chrome,Mac,900,1440,19.4816,
730,List2,broccoli_big.jpg,no_contrast,Click on the small backpack,.loc3,.loc1,.loc2,.loc4,small,modifier,backpack,bad,"['loc3', 'loc3', 'loc4']","[1449, 2594, 4504]",shovel_small.jpg,dress_big.jpg,dress_big.jpg,backpack_small.jpg,26,test26,test,46,[],24,Yes,N/A,3,1,The price was fine.,Male,English,N/A,Chrome,Mac,900,1440,19.4816,
730,List2,babywalker_blue.jpg,semantic_control,Click on the train,.loc4,.loc2,.loc3,.loc1,big,no_modifier,train,bad,"['loc2', 'loc1']","[1474, 2939]",babywalker_yellow.jpg,train_small.jpg,thermometer_small.jpg,train_big.jpg,265,filler145,filler,47,[],24,Yes,N/A,3,1,The price was fine.,Male,English,N/A,Chrome,Mac,900,1440,19.4816,
730,List2,coconut_big.jpg,no_contrast,Click on the toy,.loc4,.loc3,.loc2,.loc1,big,no_modifier,toy,bad,"['loc4', 'loc1']","[1228, 2502]",stingray_small.jpg,toy_small.jpg,camel_small.jpg,toy_big.jpg,106,train66,train,48,[],24,Yes,N/A,3,1,The price was fine.,Male,English,N/A,Chrome,Mac,900,1440,19.4816,
730,List2,cucumber_big.jpg,contrast,Click on the big bat,.loc3,.loc4,.loc1,.loc2,big,modifier,bat,bad,"['loc2', 'loc2', 'loc2']","[1394, 2391, 3199]",sewingmachine_big.jpg,paintcan_small.jpg,bat_small.jpg,bat_big.jpg,69,train29,train,49,[],24,Yes,N/A,3,1,The price was fine.,Male,English,N/A,Chrome,Mac,900,1440,19.4816,
730,List2,convertible_closed.jpg,semantic_control,Click on the champagne,.loc3,.loc2,.loc1,.loc4,big,no_modifier,champagne,bad,"['loc1', 'loc4']","[1457, 3066]",convertible_open.jpg,champagne_small.jpg,jar_small.jpg,champagne_big.jpg,247,filler127,filler,50,[],24,Yes,N/A,3,1,The price was fine.,Male,English,N/A,Chrome,Mac,900,1440,19.4816,
730,List2,bait_big.jpg,semantic_contrast,Click on the round chocolatecandy,.loc1,.loc4,.loc3,.loc2,round,modifier,chocolatecandy,bad,"['loc2', 'loc2', 'loc2']","[884, 1989, 3110]",kitchenisland_small.jpg,film.jpg,chocolatecandy_square.jpg,chocolatecandy_round.jpg,132,filler12,filler,51,[],24,Yes,N/A,3,1,The price was fine.,Male,English,N/A,Chrome,Mac,900,1440,19.4816,
730,List2,cassette_black.jpg,semantic_control,Click on the garlic,.loc4,.loc1,.loc2,.loc3,small,no_modifier,garlic,bad,"['loc1', 'loc1']","[1301, 2213]",cassette_white.jpg,garlic_big.jpg,tank_big.jpg,garlic_small.jpg,268,filler148,filler,52,[],24,Yes,N/A,3,1,The price was fine.,Male,English,N/A,Chrome,Mac,900,1440,19.4816,
730,List2,filingcabinet_black.jpg,semantic_control,Click on the bananas,.loc1,.loc4,.loc2,.loc3,big,no_modifier,bananas,bad,"['loc3', 'loc3']","[1249, 1882]",filingcabinet_gray.jpg,bananas_small.jpg,nailpolish_small.jpg,bananas_big.jpg,271,filler151,filler,53,[],24,Yes,N/A,3,1,The price was fine.,Male,English,N/A,Chrome,Mac,900,1440,19.4816,
730,List2,iguana_big.jpg,no_contrast,Click on the big ball,.loc3,.loc1,.loc2,.loc4,big,modifier,ball,bad,"['loc4', 'loc4', 'loc4']","[1308, 1932, 3711]",lime_small.jpg,tree_small.jpg,tree_small.jpg,ball_big.jpg,34,test34,test,54,[],24,Yes,N/A,3,1,The price was fine.,Male,English,N/A,Chrome,Mac,900,1440,19.4816,
730,List2,typewriter_old.jpg,semantic_control,Click on the peanut,.loc2,.loc3,.loc1,.loc4,small,no_modifier,peanut,bad,"['loc2', 'loc3']","[2117, 3093]",typewriter_modern.jpg,peanut_big.jpg,birdcage_big.jpg,peanut_small.jpg,292,filler172,filler,55,[],24,Yes,N/A,3,1,The price was fine.,Male,English,N/A,Chrome,Mac,900,1440,19.4816,
730,List2,wallsconce_speckled.jpg,semantic_control,Click on the raspberry,.loc3,.loc1,.loc2,.loc4,small,no_modifier,raspberry,bad,"['loc1', 'loc1']","[1304, 2185]",wallsconce_tassles.jpg,raspberry_big.jpg,measuringtape_big.jpg,raspberry_small.jpg,290,filler170,filler,56,[],24,Yes,N/A,3,1,The price was fine.,Male,English,N/A,Chrome,Mac,900,1440,19.4816,
730,List2,funnel_big.jpg,no_contrast,Click on the small icecream,.loc4,.loc2,.loc3,.loc1,small,modifier,icecream,bad,"['loc2', 'loc2', 'loc1']","[1237, 2414, 3887]",pizza_small.jpg,orange_big.jpg,orange_big.jpg,icecream_small.jpg,28,test28,test,57,[],24,Yes,N/A,3,1,The price was fine.,Male,English,N/A,Chrome,Mac,900,1440,19.4816,
730,List2,slide_big.jpg,contrast,Click on the big seahorse,.loc2,.loc3,.loc4,.loc1,big,modifier,seahorse,bad,"['loc1', 'loc2', 'loc1']","[1604, 3926, 5211]",pingpong_small.jpg,almond_small.jpg,seahorse_small.jpg,seahorse_big.jpg,77,train37,train,58,[],24,Yes,N/A,3,1,The price was fine.,Male,English,N/A,Chrome,Mac,900,1440,19.4816,
730,List2,greenbean_big.jpg,no_contrast,Click on the flashlight,.loc2,.loc1,.loc3,.loc4,small,no_modifier,flashlight,bad,"['loc1', 'loc1']","[1257, 2097]",hourglass_small.jpg,flashlight_big.jpg,door_big.jpg,flashlight_small.jpg,89,train49,train,59,[],24,Yes,N/A,3,1,The price was fine.,Male,English,N/A,Chrome,Mac,900,1440,19.4816,
730,List2,lawnmower_big.jpg,semantic_contrast,Click on the glass bottle,.loc3,.loc1,.loc4,.loc2,glass,modifier,bottle,bad,"['loc1', 'loc2', 'loc2']","[2308, 3917, 4606]",paintroller_small.jpg,gardeningpail.jpg,bottle_plastic.jpg,bottle_glass.jpg,150,filler30,filler,60,[],24,Yes,N/A,3,1,The price was fine.,Male,English,N/A,Chrome,Mac,900,1440,19.4816,
730,List2,pot_brass.jpg,semantic_control,Click on the glove,.loc1,.loc3,.loc4,.loc2,small,no_modifier,glove,bad,"['loc4', 'loc3']","[1461, 3198]",pot_ceramic.jpg,glove_big.jpg,handcuffs_big.jpg,glove_small.jpg,280,filler160,filler,61,[],24,Yes,N/A,3,1,The price was fine.,Male,English,N/A,Chrome,Mac,900,1440,19.4816,
730,List2,gun_big.jpg,contrast,Click on the big lifevest,.loc4,.loc1,.loc3,.loc2,big,modifier,lifevest,bad,"['loc2', 'loc2', 'loc2']","[1501, 2375, 3143]",toolbox_small.jpg,hotairballoon_small.jpg,lifevest_small.jpg,lifevest_big.jpg,43,train3,train,62,[],24,Yes,N/A,3,1,The price was fine.,Male,English,N/A,Chrome,Mac,900,1440,19.4816,
730,List2,celery_big.jpg,semantic_contrast,Click on the electric kettle,.loc4,.loc1,.loc2,.loc3,electric,modifier,kettle,bad,"['loc1', 'loc3', 'loc3']","[1409, 3206, 3895]",loofa_small.jpg,frenchtoast.jpg,kettle_stovetop.jpg,kettle_electric.jpg,139,filler19,filler,63,[],24,Yes,N/A,3,1,The price was fine.,Male,English,N/A,Chrome,Mac,900,1440,19.4816,
730,List2,anchor_big.jpg,contrast_control,Click on the bill,.loc4,.loc1,.loc3,.loc2,big,no_modifier,bill,bad,"['loc2', 'loc2']","[1715, 2571]",anchor_small.jpg,bill_small.jpg,babycup_small.jpg,bill_big.jpg,213,filler93,filler,64,[],24,Yes,N/A,3,1,The price was fine.,Male,English,N/A,Chrome,Mac,900,1440,19.4816,
730,List2,skateboard_stripes.jpg,semantic_control,Click on the parrot,.loc3,.loc4,.loc2,.loc1,small,no_modifier,parrot,bad,"['loc4', 'loc4']","[1658, 2166]",skateboard_checkers.jpg,parrot_big.jpg,babybottle_big.jpg,parrot_small.jpg,294,filler174,filler,65,[],24,Yes,N/A,3,1,The price was fine.,Male,English,N/A,Chrome,Mac,900,1440,19.4816,
730,List2,toyfarm_big.jpg,no_contrast,Click on the big ribbon,.loc4,.loc2,.loc3,.loc1,big,modifier,ribbon,bad,"['loc4', 'loc4', 'loc1']","[1242, 2169, 3436]",tissues_small.jpg,bell_small.jpg,bell_small.jpg,ribbon_big.jpg,40,test40,test,66,[],24,Yes,N/A,3,1,The price was fine.,Male,English,N/A,Chrome,Mac,900,1440,19.4816,
730,List2,saltpepper_big.jpg,semantic_contrast,Click on the red pin,.loc1,.loc3,.loc4,.loc2,red,modifier,pin,bad,"['loc1', 'loc2', 'loc2']","[1091, 2332, 2957]",pitabread_small.jpg,orca.jpg,pin_yellow.jpg,pin_red.jpg,153,filler33,filler,67,[],24,Yes,N/A,3,1,The price was fine.,Male,English,N/A,Chrome,Mac,900,1440,19.4816,
730,List2,tractor_big.jpg,contrast_control,Click on the beermug,.loc4,.loc2,.loc3,.loc1,big,no_modifier,beermug,bad,"['loc1', 'loc1']","[1352, 2062]",tractor_small.jpg,beermug_small.jpg,conch_small.jpg,beermug_big.jpg,227,filler107,filler,68,[],24,Yes,N/A,3,1,The price was fine.,Male,English,N/A,Chrome,Mac,900,1440,19.4816,
730,List2,redrose_big.jpg,contrast_control,Click on the pillow,.loc2,.loc1,.loc4,.loc3,small,no_modifier,pillow,bad,"['loc1', 'loc1']","[1193, 1827]",redrose_small.jpg,pillow_big.jpg,oars_big.jpg,pillow_small.jpg,204,filler84,filler,69,[],24,Yes,N/A,3,1,The price was fine.,Male,English,N/A,Chrome,Mac,900,1440,19.4816,
730,List2,sandwich_big.jpg,contrast,Click on the small camel,.loc3,.loc2,.loc1,.loc4,small,modifier,camel,bad,"['loc1', 'loc1', 'loc4']","[1336, 2644, 3774]",castle_small.jpg,lacrosse_big.jpg,camel_big.jpg,camel_small.jpg,66,train26,train,70,[],24,Yes,N/A,3,1,The price was fine.,Male,English,N/A,Chrome,Mac,900,1440,19.4816,
730,List2,pretzel_knot.jpg,semantic_control,Click on the waffle,.loc3,.loc4,.loc1,.loc2,small,no_modifier,waffle,bad,"['loc4', 'loc4']","[1401, 1965]",pretzel_sticks.jpg,waffle_big.jpg,exerciseball_big.jpg,waffle_small.jpg,282,filler162,filler,71,[],24,Yes,N/A,3,1,The price was fine.,Male,English,N/A,Chrome,Mac,900,1440,19.4816,
730,List2,pill_hard.jpg,semantic_control,Click on the radish,.loc4,.loc1,.loc3,.loc2,small,no_modifier,radish,bad,"['loc1', 'loc1']","[1386, 2667]",pill_capsule.jpg,radish_big.jpg,bikewithbasket_big.jpg,radish_small.jpg,256,filler136,filler,72,[],24,Yes,N/A,3,1,The price was fine.,Male,English,N/A,Chrome,Mac,900,1440,19.4816,
730,List2,tape_big.jpg,contrast,Click on the big bunny,.loc1,.loc3,.loc4,.loc2,big,modifier,bunny,bad,"['loc2', 'loc2', 'loc2']","[1520, 2173, 2893]",lightbulb_small.jpg,bunny_small.jpg,bunny_small.jpg,bunny_big.jpg,17,test17,test,73,[],24,Yes,N/A,3,1,The price was fine.,Male,English,N/A,Chrome,Mac,900,1440,19.4816,
730,List2,beachtowels_big.jpg,semantic_contrast,Click on the dog robot,.loc4,.loc3,.loc1,.loc2,dog,modifier,robot,bad,"['loc2', 'loc2', 'loc2']","[2145, 3230, 3863]",boxcutter_small.jpg,flipflops.jpg,robot_person.jpg,robot_dog.jpg,135,filler15,filler,74,[],24,Yes,N/A,3,1,The price was fine.,Male,English,N/A,Chrome,Mac,900,1440,19.4816,
730,List2,protractor_big.jpg,semantic_contrast,Click on the shorthair puppet,.loc3,.loc2,.loc1,.loc4,shorthair,modifier,puppet,bad,"['loc2', 'loc4', 'loc4']","[1801, 3324, 4105]",shades_small.jpg,sled.jpg,puppet_longhair.jpg,puppet_shorthair.jpg,169,filler49,filler,75,[],24,Yes,N/A,3,1,The price was fine.,Male,English,N/A,Chrome,Mac,900,1440,19.4816,
730,List2,gardeningpail_big.jpg,no_contrast,Click on the garbagebin,.loc3,.loc2,.loc1,.loc4,big,no_modifier,garbagebin,bad,"['loc4', 'loc4']","[1682, 2547]",tank_small.jpg,garbagebin_small.jpg,saw_small.jpg,garbagebin_big.jpg,90,train50,train,76,[],24,Yes,N/A,3,1,The price was fine.,Male,English,N/A,Chrome,Mac,900,1440,19.4816,
730,List2,pumpkin_real.jpg,semantic_control,Click on the sunflower,.loc3,.loc2,.loc1,.loc4,small,no_modifier,sunflower,bad,"['loc2', 'loc2']","[1025, 1877]",pumpkin_cookie.jpg,sunflower_big.jpg,tweezers_big.jpg,sunflower_small.jpg,284,filler164,filler,77,[],24,Yes,N/A,3,1,The price was fine.,Male,English,N/A,Chrome,Mac,900,1440,19.4816,
730,List2,mug_big.jpg,no_contrast,Click on the small flower,.loc2,.loc1,.loc3,.loc4,small,modifier,flower,bad,"['loc2', 'loc4', 'loc4']","[992, 2202, 2978]",fireextinguisher_small.jpg,camera_big.jpg,camera_big.jpg,flower_small.jpg,33,test33,test,78,[],24,Yes,N/A,3,1,The price was fine.,Male,English,N/A,Chrome,Mac,900,1440,19.4816,
730,List2,handcuffs_big.jpg,semantic_contrast,Click on the whole lemon,.loc3,.loc2,.loc1,.loc4,whole,modifier,lemon,bad,"['loc4', 'loc2', 'loc4']","[1605, 3111, 3976]",shelf_small.jpg,skydive.jpg,lemon_half.jpg,lemon_whole.jpg,170,filler50,filler,79,[],24,Yes,N/A,3,1,The price was fine.,Male,English,N/A,Chrome,Mac,900,1440,19.4816,
730,List2,toydrill_big.jpg,semantic_contrast,Click on the strawberry icecream,.loc1,.loc2,.loc4,.loc3,strawberry,modifier,icecream,bad,"['loc2', 'loc3', 'loc3']","[2206, 3984, 4612]",headlights_small.jpg,seagull.jpg,icecream_vanilla.jpg,icecream_strawberry.jpg,122,filler2,filler,80,[],24,Yes,N/A,3,1,The price was fine.,Male,English,N/A,Chrome,Mac,900,1440,19.4816,
730,List2,garlicpress_blue.jpg,semantic_control,Click on the sock,.loc3,.loc4,.loc1,.loc2,big,no_modifier,sock,bad,"['loc2', 'loc2']","[1313, 2130]",garlicpress_red.jpg,sock_small.jpg,redbean_small.jpg,sock_big.jpg,279,filler159,filler,81,[],24,Yes,N/A,3,1,The price was fine.,Male,English,N/A,Chrome,Mac,900,1440,19.4816,
730,List2,golfcart_big.jpg,semantic_contrast,Click on the round cracker,.loc3,.loc1,.loc2,.loc4,round,modifier,cracker,bad,"['loc2', 'loc4', 'loc4']","[2275, 3479, 4184]",manatee_small.jpg,grillpan.jpg,cracker_square.jpg,cracker_round.jpg,141,filler21,filler,82,[],24,Yes,N/A,3,1,The price was fine.,Male,English,N/A,Chrome,Mac,900,1440,19.4816,
730,List2,train_big.jpg,no_contrast,Click on the cherry,.loc4,.loc3,.loc2,.loc1,small,no_modifier,cherry,bad,"['loc3', 'loc3']","[1393, 2098]",jetski_small.jpg,cherry_big.jpg,briefcase_big.jpg,cherry_small.jpg,85,train45,train,83,[],24,Yes,N/A,3,1,The price was fine.,Male,English,N/A,Chrome,Mac,900,1440,19.4816,
730,List2,chips_stacked.jpg,semantic_control,Click on the cinnamonroll,.loc2,.loc1,.loc4,.loc3,big,no_modifier,cinnamonroll,bad,"['loc3', 'loc3']","[1011, 1765]",chips_strewn.jpg,cinnamonroll_small.jpg,corndog_small.jpg,cinnamonroll_big.jpg,273,filler153,filler,84,[],24,Yes,N/A,3,1,The price was fine.,Male,English,N/A,Chrome,Mac,900,1440,19.4816,
730,List2,womansshoe_pair.jpg,semantic_control,Click on the table,.loc2,.loc1,.loc4,.loc3,big,no_modifier,table,bad,"['loc3', 'loc3']","[1272, 1976]",womansshoe_single.jpg,table_small.jpg,jumprope_small.jpg,table_big.jpg,283,filler163,filler,85,[],24,Yes,N/A,3,1,The price was fine.,Male,English,N/A,Chrome,Mac,900,1440,19.4816,
730,List2,duck_camo.jpg,semantic_control,Click on the potato,.loc2,.loc3,.loc1,.loc4,small,no_modifier,potato,bad,"['loc3', 'loc3']","[1325, 2061]",duck_zebra.jpg,potato_big.jpg,dustpan_big.jpg,potato_small.jpg,262,filler142,filler,86,[],24,Yes,N/A,3,1,The price was fine.,Male,English,N/A,Chrome,Mac,900,1440,19.4816,
730,List2,bandage_big.jpg,contrast,Click on the small nut,.loc4,.loc1,.loc3,.loc2,small,modifier,nut,bad,"['loc2', 'loc2', 'loc2']","[1330, 2403, 3367]",axe_small.jpg,spotlight_big.jpg,nut_big.jpg,nut_small.jpg,64,train24,train,87,[],24,Yes,N/A,3,1,The price was fine.,Male,English,N/A,Chrome,Mac,900,1440,19.4816,
730,List2,accordion_big.jpg,contrast_control,Click on the lizard,.loc2,.loc1,.loc3,.loc4,big,no_modifier,lizard,bad,"['loc4', 'loc4']","[1850, 2682]",accordion_small.jpg,lizard_small.jpg,chowchow_small.jpg,lizard_big.jpg,225,filler105,filler,88,[],24,Yes,N/A,3,1,The price was fine.,Male,English,N/A,Chrome,Mac,900,1440,19.4816,
730,List2,hookah_big.jpg,contrast,Click on the small fan,.loc2,.loc1,.loc3,.loc4,small,modifier,fan,bad,"['loc1', 'loc1', 'loc4']","[2054, 2694, 3761]",flag_small.jpg,fan_big.jpg,fan_big.jpg,fan_small.jpg,18,test18,test,89,[],24,Yes,N/A,3,1,The price was fine.,Male,English,N/A,Chrome,Mac,900,1440,19.4816,
730,List2,swan_big.jpg,no_contrast,Click on the tie,.loc4,.loc1,.loc2,.loc3,small,no_modifier,tie,bad,"['loc3', 'loc1']","[2109, 3350]",cougar_small.jpg,tie_big.jpg,mushroom_big.jpg,tie_small.jpg,105,train65,train,90,[],24,Yes,N/A,3,1,The price was fine.,Male,English,N/A,Chrome,Mac,900,1440,19.4816,
730,List2,flower_lily.jpg,semantic_control,Click on the stingray,.loc2,.loc1,.loc3,.loc4,small,no_modifier,stingray,bad,"['loc1', 'loc1']","[2149, 3159]",flower_dahlia.jpg,stingray_big.jpg,castanets_big.jpg,stingray_small.jpg,286,filler166,filler,91,[],24,Yes,N/A,3,1,The price was fine.,Male,English,N/A,Chrome,Mac,900,1440,19.4816,
730,List2,beermug_big.jpg,contrast,Click on the big beetle,.loc2,.loc3,.loc4,.loc1,big,modifier,beetle,bad,"['loc2', 'loc1', 'loc1']","[2161, 3751, 4407]",pinkdice_small.jpg,lei_small.jpg,beetle_small.jpg,beetle_big.jpg,47,train7,train,92,[],24,Yes,N/A,3,1,The price was fine.,Male,English,N/A,Chrome,Mac,900,1440,19.4816,
730,List2,evenbars_big.jpg,semantic_contrast,Click on the reading glasses,.loc1,.loc3,.loc2,.loc4,reading,modifier,glasses,bad,"['loc3', 'loc4', 'loc4']","[2695, 4360, 4935]",kitchentimer_small.jpg,fishhook.jpg,glasses_sun.jpg,glasses_reading.jpg,133,filler13,filler,93,[],24,Yes,N/A,3,1,The price was fine.,Male,English,N/A,Chrome,Mac,900,1440,19.4816,
730,List2,brusselsprout_big.jpg,semantic_contrast,Click on the tricolor pasta,.loc1,.loc2,.loc4,.loc3,tricolor,modifier,pasta,bad,"['loc3', 'loc3', 'loc3']","[2158, 3528, 4185]",lemur_small.jpg,mortarandpestle.jpg,pasta_tortellini.jpg,pasta_tricolor.jpg,137,filler17,filler,94,[],24,Yes,N/A,3,1,The price was fine.,Male,English,N/A,Chrome,Mac,900,1440,19.4816,
730,List2,tank_big.jpg,semantic_contrast,Click on the open book,.loc1,.loc4,.loc2,.loc3,open,modifier,book,bad,"['loc4', 'loc3', 'loc3']","[2004, 3550, 4142]",thermometer_small.jpg,groundhog.jpg,book_closed.jpg,book_open.jpg,145,filler25,filler,95,[],24,Yes,N/A,3,1,The price was fine.,Male,English,N/A,Chrome,Mac,900,1440,19.4816,
730,List2,string_jute.jpg,semantic_control,Click on the tank,.loc3,.loc2,.loc4,.loc1,small,no_modifier,tank,bad,"['loc2', 'loc2']","[1089, 1734]",string_white.jpg,tank_big.jpg,kimono_big.jpg,tank_small.jpg,270,filler150,filler,96,[],24,Yes,N/A,3,1,The price was fine.,Male,English,N/A,Chrome,Mac,900,1440,19.4816,
730,List2,barrel_big.jpg,contrast,Click on the small key,.loc1,.loc4,.loc3,.loc2,small,modifier,key,bad,"['loc4', 'loc4', 'loc2']","[1017, 1665, 2690]",compass_small.jpg,key_big.jpg,key_big.jpg,key_small.jpg,7,test7,test,97,[],24,Yes,N/A,3,1,The price was fine.,Male,English,N/A,Chrome,Mac,900,1440,19.4816,
730,List2,sword_fantasy.jpg,semantic_control,Click on the pinecone,.loc1,.loc2,.loc3,.loc4,big,no_modifier,pinecone,bad,"['loc3', 'loc4']","[1613, 2702]",sword_thin.jpg,pinecone_small.jpg,measuringcups_small.jpg,pinecone_big.jpg,261,filler141,filler,98,[],24,Yes,N/A,3,1,The price was fine.,Male,English,N/A,Chrome,Mac,900,1440,19.4816,
730,List2,rollerblades_big.jpg,contrast_control,Click on the doll,.loc1,.loc2,.loc4,.loc3,small,no_modifier,doll,bad,"['loc2', 'loc2']","[1649, 2534]",rollerblades_small.jpg,doll_big.jpg,ring_big.jpg,doll_small.jpg,232,filler112,filler,99,[],24,Yes,N/A,3,1,The price was fine.,Male,English,N/A,Chrome,Mac,900,1440,19.4816,
730,List2,asparagus_big.jpg,no_contrast,Click on the triangle,.loc2,.loc3,.loc1,.loc4,small,no_modifier,triangle,bad,"['loc3', 'loc3']","[1626, 2194]",leash_small.jpg,triangle_big.jpg,yarn_big.jpg,triangle_small.jpg,107,train67,train,100,[],24,Yes,N/A,3,1,The price was fine.,Male,English,N/A,Chrome,Mac,900,1440,19.4816,
730,List2,hawk_big.jpg,contrast,Click on the big wallet,.loc4,.loc3,.loc1,.loc2,big,modifier,wallet,bad,"['loc4', 'loc4', 'loc2']","[1897, 3279, 4438]",hay_small.jpg,gasmask_small.jpg,wallet_small.jpg,wallet_big.jpg,71,train31,train,101,[],24,Yes,N/A,3,1,The price was fine.,Male,English,N/A,Chrome,Mac,900,1440,19.4816,
730,List2,carseat_big.jpg,contrast_control,Click on the flag,.loc2,.loc4,.loc3,.loc1,small,no_modifier,flag,bad,"['loc4', 'loc4']","[1618, 2951]",carseat_small.jpg,flag_big.jpg,pooltable_big.jpg,flag_small.jpg,218,filler98,filler,102,[],24,Yes,N/A,3,1,The price was fine.,Male,English,N/A,Chrome,Mac,900,1440,19.4816,
730,List2,deer_big.jpg,contrast,Click on the big rope,.loc4,.loc3,.loc2,.loc1,big,modifier,rope,bad,"['loc3', 'loc3', 'loc1']","[7283, 8065, 9299]",stampset_small.jpg,ironingboard_small.jpg,rope_small.jpg,rope_big.jpg,51,train11,train,103,[],24,Yes,N/A,3,1,The price was fine.,Male,English,N/A,Chrome,Mac,900,1440,19.4816,
730,List2,alligator_big.jpg,contrast_control,Click on the bed,.loc2,.loc1,.loc3,.loc4,small,no_modifier,bed,bad,"['loc1', 'loc1']","[1937, 2954]",alligator_small.jpg,bed_big.jpg,coral_big.jpg,bed_small.jpg,228,filler108,filler,104,[],24,Yes,N/A,3,1,The price was fine.,Male,English,N/A,Chrome,Mac,900,1440,19.4816,
730,List2,creamer_big.jpg,no_contrast,Click on the glass,.loc4,.loc1,.loc2,.loc3,big,no_modifier,glass,bad,"['loc3', 'loc3']","[1324, 2205]",wagon_small.jpg,glass_small.jpg,drum_small.jpg,glass_big.jpg,92,train52,train,105,[],24,Yes,N/A,3,1,The price was fine.,Male,English,N/A,Chrome,Mac,900,1440,19.4816,
730,List2,beaver_big.jpg,contrast_control,Click on the suitcase,.loc4,.loc3,.loc1,.loc2,big,no_modifier,suitcase,bad,"['loc1', 'loc2']","[2162, 3295]",beaver_small.jpg,suitcase_small.jpg,candyapple_small.jpg,suitcase_big.jpg,211,filler91,filler,106,[],24,Yes,N/A,3,1,The price was fine.,Male,English,N/A,Chrome,Mac,900,1440,19.4816,
730,List2,quilt_blue.jpg,semantic_control,Click on the slide,.loc3,.loc4,.loc2,.loc1,big,no_modifier,slide,bad,"['loc1', 'loc1']","[1793, 2818]",quilt_brown.jpg,slide_small.jpg,leopard_small.jpg,slide_big.jpg,257,filler137,filler,107,[],24,Yes,N/A,3,1,The price was fine.,Male,English,N/A,Chrome,Mac,900,1440,19.4816,
730,List2,speaker_big.jpg,no_contrast,Click on the small cookie,.loc3,.loc2,.loc1,.loc4,small,modifier,cookie,bad,"['loc2', 'loc4', 'loc4']","[3095, 5297, 6062]",teapot_small.jpg,tuxedo_big.jpg,tuxedo_big.jpg,cookie_small.jpg,24,test24,test,108,[],24,Yes,N/A,3,1,The price was fine.,Male,English,N/A,Chrome,Mac,900,1440,19.4816,
730,List2,veggieplatter_big.jpg,no_contrast,Click on the small cat,.loc2,.loc1,.loc4,.loc3,small,modifier,cat,bad,"['loc2', 'loc2', 'loc3']","[17639, 18567, 19704]",recliner_small.jpg,turtle_big.jpg,turtle_big.jpg,cat_small.jpg,32,test32,test,109,[],24,Yes,N/A,3,1,The price was fine.,Male,English,N/A,Chrome,Mac,900,1440,19.4816,
730,List2,helmet_big.jpg,no_contrast,Click on the big hat,.loc1,.loc3,.loc2,.loc4,big,modifier,hat,bad,"['loc1', 'loc1', 'loc4']","[3774, 4940, 6286]",wreath_small.jpg,onion_small.jpg,onion_small.jpg,hat_big.jpg,25,test25,test,110,[],24,Yes,N/A,3,1,The price was fine.,Male,English,N/A,Chrome,Mac,900,1440,19.4816,
730,List2,cigarette_big.jpg,semantic_contrast,Click on the open coffin,.loc1,.loc3,.loc4,.loc2,open,modifier,coffin,bad,"['loc3', 'loc2', 'loc2']","[1169, 2434, 3135]",braidedloaf_small.jpg,fruitcake.jpg,coffin_closed.jpg,coffin_open.jpg,140,filler20,filler,111,[],24,Yes,N/A,3,1,The price was fine.,Male,English,N/A,Chrome,Mac,900,1440,19.4816,
730,List2,sushi_big.jpg,contrast_control,Click on the cone,.loc3,.loc1,.loc4,.loc2,small,no_modifier,cone,bad,"['loc1', 'loc1']","[1194, 2131]",sushi_small.jpg,cone_big.jpg,stroller_big.jpg,cone_small.jpg,208,filler88,filler,112,[],24,Yes,N/A,3,1,The price was fine.,Male,English,N/A,Chrome,Mac,900,1440,19.4816,
730,List2,opener_metal.jpg,semantic_control,Click on the greenbean,.loc4,.loc2,.loc1,.loc3,big,no_modifier,greenbean,bad,"['loc3', 'loc3']","[1289, 2205]",opener_wood.jpg,greenbean_small.jpg,pepperoni_small.jpg,greenbean_big.jpg,269,filler149,filler,113,[],24,Yes,N/A,3,1,The price was fine.,Male,English,N/A,Chrome,Mac,900,1440,19.4816,
730,List2,soap_big.jpg,no_contrast,Click on the big pear,.loc1,.loc2,.loc3,.loc4,big,modifier,pear,bad,"['loc3', 'loc3', 'loc4']","[1553, 2618, 3817]",cannoli_small.jpg,feather_small.jpg,feather_small.jpg,pear_big.jpg,29,test29,test,114,[],24,Yes,N/A,3,1,The price was fine.,Male,English,N/A,Chrome,Mac,900,1440,19.4816,
730,List2,hippo_big.jpg,contrast,Click on the big house,.loc2,.loc1,.loc3,.loc4,big,modifier,house,bad,"['loc2', 'loc2', 'loc4']","[1222, 1878, 3031]",candle_small.jpg,antelope_small.jpg,house_small.jpg,house_big.jpg,57,train17,train,115,[],24,Yes,N/A,3,1,The price was fine.,Male,English,N/A,Chrome,Mac,900,1440,19.4816,
730,List2,sleepingbag_plaid.jpg,semantic_control,Click on the partyhat,.loc4,.loc2,.loc1,.loc3,big,no_modifier,partyhat,bad,"['loc1', 'loc3']","[1156, 2933]",sleepingbag_blue.jpg,partyhat_small.jpg,kooshball_small.jpg,partyhat_big.jpg,293,filler173,filler,116,[],24,Yes,N/A,3,1,The price was fine.,Male,English,N/A,Chrome,Mac,900,1440,19.4816,
730,List2,bowtie_big.jpg,no_contrast,Click on the owl,.loc3,.loc1,.loc2,.loc4,small,no_modifier,owl,bad,"['loc3', 'loc1']","[921, 2146]",faucet_small.jpg,owl_big.jpg,house_big.jpg,owl_small.jpg,97,train57,train,117,[],24,Yes,N/A,3,1,The price was fine.,Male,English,N/A,Chrome,Mac,900,1440,19.4816,
730,List2,waterhose_big.jpg,semantic_contrast,Click on the gold bracelet,.loc2,.loc1,.loc4,.loc3,gold,modifier,bracelet,bad,"['loc2', 'loc3', 'loc3']","[2614, 3735, 4786]",hubble_small.jpg,carousel.jpg,bracelet_diamond.jpg,bracelet_gold.jpg,125,filler5,filler,118,[],24,Yes,N/A,3,1,The price was fine.,Male,English,N/A,Chrome,Mac,900,1440,19.4816,
730,List2,kiwi_big.jpg,contrast,Click on the big target,.loc3,.loc1,.loc4,.loc2,big,modifier,target,bad,"['loc1', 'loc1', 'loc2']","[1940, 2821, 3866]",toyhammer_small.jpg,clarinet_small.jpg,target_small.jpg,target_big.jpg,59,train19,train,119,[],24,Yes,N/A,3,1,The price was fine.,Male,English,N/A,Chrome,Mac,900,1440,19.4816,
730,List2,bathtub_big.jpg,contrast,Click on the big mushroom,.loc4,.loc3,.loc2,.loc1,big,modifier,mushroom,bad,"['loc1', 'loc1', 'loc1']","[1129, 2995, 4149]",sushi_small.jpg,teeth_small.jpg,mushroom_small.jpg,mushroom_big.jpg,65,train25,train,120,[],24,Yes,N/A,3,1,The price was fine.,Male,English,N/A,Chrome,Mac,900,1440,19.4816,
730,List2,crown_big.jpg,contrast,Click on the small mask,.loc1,.loc3,.loc4,.loc2,small,modifier,mask,bad,"['loc1', 'loc1', 'loc2']","[3758, 6668, 8786]",brain_small.jpg,holepunch_big.jpg,mask_big.jpg,mask_small.jpg,42,train2,train,121,[],24,Yes,N/A,3,1,The price was fine.,Male,English,N/A,Chrome,Mac,900,1440,19.4816,
730,List2,window_big.jpg,no_contrast,Click on the saxophone,.loc2,.loc4,.loc1,.loc3,small,no_modifier,saxophone,bad,"['loc4', 'loc4']","[2778, 3879]",pearls_small.jpg,saxophone_big.jpg,alarmclock_big.jpg,saxophone_small.jpg,101,train61,train,122,[],24,Yes,N/A,3,1,The price was fine.,Male,English,N/A,Chrome,Mac,900,1440,19.4816,
730,List2,gardeningpail_big.jpg,contrast_control,Click on the microwave,.loc4,.loc2,.loc1,.loc3,big,no_modifier,microwave,bad,"['loc4', 'loc3']","[2788, 3669]",gardeningpail_small.jpg,microwave_small.jpg,wavevase_small.jpg,microwave_big.jpg,195,filler75,filler,123,[],24,Yes,N/A,3,1,The price was fine.,Male,English,N/A,Chrome,Mac,900,1440,19.4816,
730,List2,pinata_big.jpg,semantic_contrast,Click on the wood hanger,.loc4,.loc1,.loc2,.loc3,wood,modifier,hanger,bad,"['loc2', 'loc1', 'loc3']","[1740, 5916, 7200]",congadrum_small.jpg,bishop.jpg,hanger_plastic.jpg,hanger_wood.jpg,121,filler1,filler,124,[],24,Yes,N/A,3,1,The price was fine.,Male,English,N/A,Chrome,Mac,900,1440,19.4816,
730,List2,dress_roses.jpg,semantic_control,Click on the asparagus,.loc1,.loc4,.loc3,.loc2,big,no_modifier,asparagus,bad,"['loc2', 'loc2']","[1447, 2224]",dress_flowers.jpg,asparagus_small.jpg,thimble_small.jpg,asparagus_big.jpg,287,filler167,filler,125,[],24,Yes,N/A,3,1,The price was fine.,Male,English,N/A,Chrome,Mac,900,1440,19.4816,
730,List2,laptop_big.jpg,contrast,Click on the big starfish,.loc4,.loc2,.loc1,.loc3,big,modifier,starfish,bad,"['loc3', 'loc3', 'loc3']","[1045, 1997, 2677]",toyoctopus_small.jpg,starfish_small.jpg,starfish_small.jpg,starfish_big.jpg,15,test15,test,126,[],24,Yes,N/A,3,1,The price was fine.,Male,English,N/A,Chrome,Mac,900,1440,19.4816,
730,List2,tractor_big.jpg,contrast,Click on the big dress,.loc2,.loc1,.loc3,.loc4,big,modifier,dress,bad,"['loc4', 'loc4', 'loc4']","[1473, 2189, 2838]",nest_small.jpg,dress_small.jpg,dress_small.jpg,dress_big.jpg,6,test6,test,127,[],24,Yes,N/A,3,1,The price was fine.,Male,English,N/A,Chrome,Mac,900,1440,19.4816,
730,List2,table_big.jpg,no_contrast,Click on the stool,.loc4,.loc3,.loc2,.loc1,small,no_modifier,stool,bad,"['loc3', 'loc3']","[1113, 1897]",cushion_small.jpg,stool_big.jpg,jeep_big.jpg,stool_small.jpg,103,train63,train,128,[],24,Yes,N/A,3,1,The price was fine.,Male,English,N/A,Chrome,Mac,900,1440,19.4816,
730,List2,measuringtape_big.jpg,semantic_contrast,Click on the open box,.loc3,.loc1,.loc2,.loc4,open,modifier,box,bad,"['loc3', 'loc4', 'loc4']","[1990, 3391, 4015]",screw_small.jpg,skeleton.jpg,box_closed.jpg,box_open.jpg,168,filler48,filler,129,[],24,Yes,N/A,3,1,The price was fine.,Male,English,N/A,Chrome,Mac,900,1440,19.4816,
730,List2,robe_big.jpg,semantic_contrast,Click on the twoslot toaster,.loc4,.loc1,.loc3,.loc2,twoslot,modifier,toaster,bad,"['loc1', 'loc2', 'loc2']","[1409, 4027, 4555]",eyeshadow_small.jpg,recyclingbox.jpg,toaster_fourslot.jpg,toaster_twoslot.jpg,161,filler41,filler,130,[],24,Yes,N/A,3,1,The price was fine.,Male,English,N/A,Chrome,Mac,900,1440,19.4816,
730,List2,mailbox_farm.jpg,semantic_control,Click on the axe,.loc4,.loc3,.loc2,.loc1,small,no_modifier,axe,bad,"['loc3', 'loc3']","[1058, 1918]",mailbox_green.jpg,axe_big.jpg,turkey_big.jpg,axe_small.jpg,244,filler124,filler,131,[],24,Yes,N/A,3,1,The price was fine.,Male,English,N/A,Chrome,Mac,900,1440,19.4816,
730,List2,sock_big.jpg,no_contrast,Click on the penguin,.loc2,.loc4,.loc3,.loc1,small,no_modifier,penguin,bad,"['loc4', 'loc4']","[1409, 2145]",bush_small.jpg,penguin_big.jpg,target_big.jpg,penguin_small.jpg,99,train59,train,132,[],24,Yes,N/A,3,1,The price was fine.,Male,English,N/A,Chrome,Mac,900,1440,19.4816,
730,List2,windmill_big.jpg,no_contrast,Click on the small lobster,.loc4,.loc1,.loc3,.loc2,small,modifier,lobster,bad,"['loc2', 'loc2', 'loc2']","[1394, 2335, 3095]",cake_small.jpg,brush_big.jpg,brush_big.jpg,lobster_small.jpg,22,test22,test,133,[],24,Yes,N/A,3,1,The price was fine.,Male,English,N/A,Chrome,Mac,900,1440,19.4816,
730,List2,caterpillar_big.jpg,contrast,Click on the big door,.loc1,.loc4,.loc2,.loc3,big,modifier,door,bad,"['loc4', 'loc4', 'loc3']","[1042, 1730, 2840]",globe_small.jpg,soccerball_small.jpg,door_small.jpg,door_big.jpg,49,train9,train,134,[],24,Yes,N/A,3,1,The price was fine.,Male,English,N/A,Chrome,Mac,900,1440,19.4816,
730,List2,oars_big.jpg,no_contrast,Click on the sardines,.loc2,.loc1,.loc3,.loc4,big,no_modifier,sardines,bad,"['loc4', 'loc4']","[1265, 2041]",couch_small.jpg,sardines_small.jpg,football_small.jpg,sardines_big.jpg,120,train80,train,135,[],24,Yes,N/A,3,1,The price was fine.,Male,English,N/A,Chrome,Mac,900,1440,19.4816,
730,List2,scissors_big.jpg,no_contrast,Click on the small fish,.loc1,.loc4,.loc2,.loc3,small,modifier,fish,bad,"['loc4', 'loc3', 'loc3']","[1041, 2631, 3183]",rollerblades_small.jpg,bunny_big.jpg,bunny_big.jpg,fish_small.jpg,37,test37,test,136,[],24,Yes,N/A,3,1,The price was fine.,Male,English,N/A,Chrome,Mac,900,1440,19.4816,
730,List2,duster_pink.jpg,semantic_control,Click on the gumballmachine,.loc4,.loc1,.loc3,.loc2,big,no_modifier,gumballmachine,bad,"['loc2', 'loc2']","[1473, 2370]",duster_turquoise.jpg,gumballmachine_small.jpg,paintroller_small.jpg,gumballmachine_big.jpg,267,filler147,filler,137,[],24,Yes,N/A,3,1,The price was fine.,Male,English,N/A,Chrome,Mac,900,1440,19.4816,
730,List2,wheelchair_big.jpg,contrast_control,Click on the stoplight,.loc2,.loc3,.loc4,.loc1,small,no_modifier,stoplight,bad,"['loc3', 'loc3']","[1060, 1869]",wheelchair_small.jpg,stoplight_big.jpg,chess_big.jpg,stoplight_small.jpg,224,filler104,filler,138,[],24,Yes,N/A,3,1,The price was fine.,Male,English,N/A,Chrome,Mac,900,1440,19.4816,
730,List2,gingerbreadcookie_big.jpg,semantic_contrast,Click on the mobile phone,.loc4,.loc2,.loc3,.loc1,mobile,modifier,phone,bad,"['loc1', 'loc1', 'loc1']","[1194, 2186, 2814]",nailpolish_small.jpg,ship.jpg,phone_landline.jpg,phone_mobile.jpg,147,filler27,filler,139,[],24,Yes,N/A,3,1,The price was fine.,Male,English,N/A,Chrome,Mac,900,1440,19.4816,
730,List2,spring_big.jpg,semantic_contrast,Click on the rubber duck,.loc4,.loc2,.loc1,.loc3,rubber,modifier,duck,bad,"['loc3', 'loc3', 'loc3']","[1041, 2058, 2570]",parsley_small.jpg,nailclippers.jpg,duck_plush.jpg,duck_rubber.jpg,152,filler32,filler,140,[],24,Yes,N/A,3,1,The price was fine.,Male,English,N/A,Chrome,Mac,900,1440,19.4816,
730,List2,hairclip_big.jpg,no_contrast,Click on the small bird,.loc3,.loc1,.loc4,.loc2,small,modifier,bird,bad,"['loc1', 'loc2', 'loc2']","[1254, 2990, 3607]",trophy_small.jpg,kayak_big.jpg,kayak_big.jpg,bird_small.jpg,30,test30,test,141,[],24,Yes,N/A,3,1,The price was fine.,Male,English,N/A,Chrome,Mac,900,1440,19.4816,
730,List2,candleholder_big.jpg,contrast_control,Click on the cake,.loc3,.loc1,.loc2,.loc4,small,no_modifier,cake,bad,"['loc1', 'loc1']","[1121, 1741]",candleholder_small.jpg,cake_big.jpg,speaker_big.jpg,cake_small.jpg,182,filler62,filler,142,[],24,Yes,N/A,3,1,The price was fine.,Male,English,N/A,Chrome,Mac,900,1440,19.4816,
730,List2,floppy_big.jpg,no_contrast,Click on the firehydrant,.loc1,.loc3,.loc2,.loc4,big,no_modifier,firehydrant,bad,"['loc4', 'loc4']","[1424, 1962]",chocolatebar_small.jpg,firehydrant_small.jpg,harp_small.jpg,firehydrant_big.jpg,94,train54,train,143,[],24,Yes,N/A,3,1,The price was fine.,Male,English,N/A,Chrome,Mac,900,1440,19.4816,
730,List2,africanmask_big.jpg,contrast,Click on the small wheel,.loc2,.loc4,.loc1,.loc3,small,modifier,wheel,bad,"['loc1', 'loc1', 'loc3']","[1273, 1793, 2782]",graduationhat_small.jpg,safetypin_big.jpg,wheel_big.jpg,wheel_small.jpg,56,train16,train,144,[],24,Yes,N/A,3,1,The price was fine.,Male,English,N/A,Chrome,Mac,900,1440,19.4816,
730,List2,bagpipes_big.jpg,contrast,Click on the small bell,.loc2,.loc1,.loc4,.loc3,small,modifier,bell,bad,"['loc1', 'loc3', 'loc3']","[1153, 2330, 2979]",microphone_small.jpg,bell_big.jpg,bell_big.jpg,bell_small.jpg,20,test20,test,145,[],24,Yes,N/A,3,1,The price was fine.,Male,English,N/A,Chrome,Mac,900,1440,19.4816,
730,List2,kimono_big.jpg,semantic_contrast,Click on the fountain pen,.loc3,.loc4,.loc2,.loc1,fountain,modifier,pen,bad,"['loc2', 'loc1', 'loc1']","[1253, 3648, 4104]",bench_small.jpg,mousewheel.jpg,pen_marker.jpg,pen_fountain.jpg,151,filler31,filler,146,[],24,Yes,N/A,3,1,The price was fine.,Male,English,N/A,Chrome,Mac,900,1440,19.4816,
730,List2,watercooler_big.jpg,semantic_contrast,Click on the blue balloon,.loc3,.loc1,.loc2,.loc4,blue,modifier,balloon,bad,"['loc1', 'loc4', 'loc4']","[956, 2158, 2782]",huntingvest_small.jpg,treasurechest.jpg,balloon_red.jpg,balloon_blue.jpg,126,filler6,filler,147,[],24,Yes,N/A,3,1,The price was fine.,Male,English,N/A,Chrome,Mac,900,1440,19.4816,
730,List2,exercisebike_big.jpg,semantic_contrast,Click on the hand mirror,.loc3,.loc2,.loc1,.loc4,hand,modifier,mirror,bad,"['loc1', 'loc4', 'loc4']","[1530, 4289, 4849]",mango_small.jpg,goldfish.jpg,mirror_standing.jpg,mirror_hand.jpg,142,filler22,filler,148,[],24,Yes,N/A,3,1,The price was fine.,Male,English,N/A,Chrome,Mac,900,1440,19.4816,
730,List2,scarf_big.jpg,contrast,Click on the small eagle,.loc3,.loc4,.loc1,.loc2,small,modifier,eagle,bad,"['loc1', 'loc2', 'loc2']","[1149, 3472, 4320]",horse_small.jpg,scotchtape_big.jpg,eagle_big.jpg,eagle_small.jpg,70,train30,train,149,[],24,Yes,N/A,3,1,The price was fine.,Male,English,N/A,Chrome,Mac,900,1440,19.4816,
730,List2,bananas_big.jpg,no_contrast,Click on the giraffe,.loc1,.loc4,.loc3,.loc2,small,no_modifier,giraffe,bad,"['loc4', 'loc4']","[1774, 2455]",conch_small.jpg,giraffe_big.jpg,rope_big.jpg,giraffe_small.jpg,91,train51,train,150,[],24,Yes,N/A,3,1,The price was fine.,Male,English,N/A,Chrome,Mac,900,1440,19.4816,
730,List2,lizard_big.jpg,contrast,Click on the big briefcase,.loc2,.loc3,.loc4,.loc1,big,modifier,briefcase,bad,"['loc1', 'loc2', 'loc1']","[1715, 3512, 5122]",carseat_small.jpg,calculator_small.jpg,briefcase_small.jpg,briefcase_big.jpg,45,train5,train,151,[],24,Yes,N/A,3,1,The price was fine.,Male,English,N/A,Chrome,Mac,900,1440,19.4816,
730,List2,yoyo_big.jpg,contrast_control,Click on the dart,.loc1,.loc2,.loc3,.loc4,small,no_modifier,dart,bad,"['loc1', 'loc2']","[938, 1982]",yoyo_small.jpg,dart_big.jpg,creamer_big.jpg,dart_small.jpg,230,filler110,filler,152,[],24,Yes,N/A,3,1,The price was fine.,Male,English,N/A,Chrome,Mac,900,1440,19.4816,
730,List2,accordion_big.jpg,contrast,Click on the big kayak,.loc3,.loc4,.loc2,.loc1,big,modifier,kayak,bad,"['loc1', 'loc1', 'loc1']","[1073, 2075, 2763]",microscope_small.jpg,kayak_small.jpg,kayak_small.jpg,kayak_big.jpg,10,test10,test,153,[],24,Yes,N/A,3,1,The price was fine.,Male,English,N/A,Chrome,Mac,900,1440,19.4816,
730,List2,sushi_salmon.jpg,semantic_control,Click on the keyboard,.loc2,.loc4,.loc3,.loc1,big,no_modifier,keyboard,bad,"['loc1', 'loc1']","[1583, 2831]",sushi_nigiri.jpg,keyboard_small.jpg,kitchentimer_small.jpg,keyboard_big.jpg,253,filler133,filler,154,[],24,Yes,N/A,3,1,The price was fine.,Male,English,N/A,Chrome,Mac,900,1440,19.4816,
730,List2,spicerack_rectangle.jpg,semantic_control,Click on the snowflake,.loc2,.loc1,.loc3,.loc4,small,no_modifier,snowflake,bad,"['loc1', 'loc1']","[1665, 3768]",spicerack_shelves.jpg,snowflake_big.jpg,brusselsprout_big.jpg,snowflake_small.jpg,258,filler138,filler,155,[],24,Yes,N/A,3,1,The price was fine.,Male,English,N/A,Chrome,Mac,900,1440,19.4816,
730,List2,piano_big.jpg,no_contrast,Click on the big ballerina,.loc3,.loc2,.loc1,.loc4,big,modifier,ballerina,bad,"['loc3', 'loc3', 'loc4']","[1314, 2314, 3761]",cables_small.jpg,key_small.jpg,key_small.jpg,ballerina_big.jpg,27,test27,test,156,[],24,Yes,N/A,3,1,The price was fine.,Male,English,N/A,Chrome,Mac,900,1440,19.4816,
730,List2,blackspaceship_big.jpg,no_contrast,Click on the big plant,.loc4,.loc1,.loc3,.loc2,big,modifier,plant,bad,"['loc1', 'loc1', 'loc2']","[1793, 2914, 4255]",bucket_small.jpg,guitar_small.jpg,guitar_small.jpg,plant_big.jpg,36,test36,test,157,[],24,Yes,N/A,3,1,The price was fine.,Male,English,N/A,Chrome,Mac,900,1440,19.4816,
730,List2,stroller_big.jpg,contrast,Click on the small drum,.loc2,.loc1,.loc4,.loc3,small,modifier,drum,bad,"['loc1', 'loc4', 'loc3']","[1321, 2826, 4119]",doll_small.jpg,floppydiscs_big.jpg,drum_big.jpg,drum_small.jpg,52,train12,train,158,[],24,Yes,N/A,3,1,The price was fine.,Male,English,N/A,Chrome,Mac,900,1440,19.4816,
730,List2,bikewithbasket_big.jpg,semantic_contrast,Click on the metal sink,.loc4,.loc2,.loc1,.loc3,metal,modifier,sink,bad,"['loc2', 'loc1', 'loc3']","[1945, 3571, 4536]",ladle_small.jpg,flowerpot.jpg,sink_porcelain.jpg,sink_metal.jpg,136,filler16,filler,159,[],24,Yes,N/A,3,1,The price was fine.,Male,English,N/A,Chrome,Mac,900,1440,19.4816,
730,List2,musicsheet_big.jpg,no_contrast,Click on the blackberry,.loc2,.loc4,.loc1,.loc3,small,no_modifier,blackberry,bad,"['loc4', 'loc4']","[1256, 2257]",tote_small.jpg,blackberry_big.jpg,hammock_big.jpg,blackberry_small.jpg,119,train79,train,160,[],24,Yes,N/A,3,1,The price was fine.,Male,English,N/A,Chrome,Mac,900,1440,19.4816,
730,List2,anchor_big.jpg,contrast,Click on the small harp,.loc2,.loc4,.loc1,.loc3,small,modifier,harp,bad,"['loc3', 'loc3', 'loc3']","[1686, 2825, 3728]",fountain_small.jpg,webcam_big.jpg,harp_big.jpg,harp_small.jpg,54,train14,train,161,[],24,Yes,N/A,3,1,The price was fine.,Male,English,N/A,Chrome,Mac,900,1440,19.4816,
730,List2,bloodymary_big.jpg,semantic_contrast,Click on the red toothbrush,.loc3,.loc1,.loc4,.loc2,red,modifier,toothbrush,bad,"['loc1', 'loc2', 'loc2']","[2366, 4087, 5048]",threeholepunch_small.jpg,baseballbat.jpg,toothbrush_purple.jpg,toothbrush_red.jpg,176,filler56,filler,162,[],24,Yes,N/A,3,1,The price was fine.,Male,English,N/A,Chrome,Mac,900,1440,19.4816,
730,List2,batteries_big.jpg,semantic_contrast,Click on the round loafofbread,.loc1,.loc4,.loc3,.loc2,round,modifier,loafofbread,bad,"['loc2', 'loc2', 'loc2']","[5085, 5821, 6510]",kneehammer_small.jpg,flamingo.jpg,loafofbread_rectangular.jpg,loafofbread_round.jpg,134,filler14,filler,163,[],24,Yes,N/A,3,1,The price was fine.,Male,English,N/A,Chrome,Mac,900,1440,19.4816,
730,List2,perfume_tall.jpg,semantic_control,Click on the spoon,.loc3,.loc2,.loc1,.loc4,big,no_modifier,spoon,bad,"['loc4', 'loc4']","[1193, 2251]",perfume_short.jpg,spoon_small.jpg,lemur_small.jpg,spoon_big.jpg,255,filler135,filler,164,[],24,Yes,N/A,3,1,The price was fine.,Male,English,N/A,Chrome,Mac,900,1440,19.4816,
730,List2,pacifier_red.jpg,semantic_control,Click on the cucumber,.loc4,.loc3,.loc2,.loc1,big,no_modifier,cucumber,bad,"['loc1', 'loc1']","[1037, 1797]",pacifier_blue.jpg,cucumber_small.jpg,joystick_small.jpg,cucumber_big.jpg,249,filler129,filler,165,[],24,Yes,N/A,3,1,The price was fine.,Male,English,N/A,Chrome,Mac,900,1440,19.4816,
730,List2,postits_big.jpg,semantic_contrast,Click on the plastic fork,.loc1,.loc3,.loc4,.loc2,plastic,modifier,fork,bad,"['loc3', 'loc2', 'loc2']","[1073, 4633, 5193]",rockclimbingshoe_small.jpg,salami.jpg,fork_silver.jpg,fork_plastic.jpg,165,filler45,filler,166,[],24,Yes,N/A,3,1,The price was fine.,Male,English,N/A,Chrome,Mac,900,1440,19.4816,
730,List2,woodperson_big.jpg,semantic_contrast,Click on the nuts chocolatebar,.loc2,.loc3,.loc1,.loc4,nuts,modifier,chocolatebar,bad,"['loc1', 'loc4', 'loc4']","[1587, 2872, 3616]",joystick_small.jpg,constructionhelmet.jpg,chocolatebar_nonuts.jpg,chocolatebar_nuts.jpg,129,filler9,filler,167,[],24,Yes,N/A,3,1,The price was fine.,Male,English,N/A,Chrome,Mac,900,1440,19.4816,
730,List2,keyboard_big.jpg,contrast,Click on the big suit,.loc4,.loc3,.loc2,.loc1,big,modifier,suit,bad,"['loc1', 'loc1', 'loc1']","[1386, 2131, 2998]",redrose_small.jpg,qtip_small.jpg,suit_small.jpg,suit_big.jpg,73,train33,train,168,[],24,Yes,N/A,3,1,The price was fine.,Male,English,N/A,Chrome,Mac,900,1440,19.4816,
730,List2,frog_big.jpg,contrast_control,Click on the lime,.loc1,.loc4,.loc2,.loc3,small,no_modifier,lime,bad,"['loc4', 'loc4']","[1234, 1995]",frog_small.jpg,lime_big.jpg,milkshake_big.jpg,lime_small.jpg,194,filler74,filler,169,[],24,Yes,N/A,3,1,The price was fine.,Male,English,N/A,Chrome,Mac,900,1440,19.4816,
730,List2,champagne_big.jpg,contrast,Click on the big yarn,.loc1,.loc2,.loc4,.loc3,big,modifier,yarn,bad,"['loc1', 'loc1', 'loc3']","[1089, 2315, 3608]",babycup_small.jpg,walkietalkie_small.jpg,yarn_small.jpg,yarn_big.jpg,67,train27,train,170,[],24,Yes,N/A,3,1,The price was fine.,Male,English,N/A,Chrome,Mac,900,1440,19.4816,
730,List2,broccoli_big.jpg,contrast_control,Click on the hippo,.loc2,.loc4,.loc1,.loc3,big,no_modifier,hippo,bad,"['loc3', 'loc3']","[1144, 2002]",broccoli_small.jpg,hippo_small.jpg,firepants_small.jpg,hippo_big.jpg,237,filler117,filler,171,[],24,Yes,N/A,3,1,The price was fine.,Male,English,N/A,Chrome,Mac,900,1440,19.4816,
730,List2,gong_big.jpg,contrast_control,Click on the microphone,.loc4,.loc3,.loc2,.loc1,small,no_modifier,microphone,bad,"['loc3', 'loc3']","[1225, 1913]",gong_small.jpg,microphone_big.jpg,brochette_big.jpg,microphone_small.jpg,220,filler100,filler,172,[],24,Yes,N/A,3,1,The price was fine.,Male,English,N/A,Chrome,Mac,900,1440,19.4816,
730,List2,pingpong_big.jpg,contrast_control,Click on the dolphin,.loc3,.loc2,.loc4,.loc1,small,no_modifier,dolphin,bad,"['loc2', 'loc2']","[1317, 2062]",pingpong_small.jpg,dolphin_big.jpg,magnifyingglass_big.jpg,dolphin_small.jpg,202,filler82,filler,173,[],24,Yes,N/A,3,1,The price was fine.,Male,English,N/A,Chrome,Mac,900,1440,19.4816,
730,List2,leatherman_purple.jpg,semantic_control,Click on the ovenmit,.loc4,.loc2,.loc3,.loc1,big,no_modifier,ovenmit,bad,"['loc1', 'loc1']","[1120, 2258]",leatherman_yellow.jpg,ovenmit_small.jpg,rockclimbingshoe_small.jpg,ovenmit_big.jpg,297,filler177,filler,174,[],24,Yes,N/A,3,1,The price was fine.,Male,English,N/A,Chrome,Mac,900,1440,19.4816,
730,List2,cinnamonroll_big.jpg,no_contrast,Click on the hotdog,.loc4,.loc2,.loc1,.loc3,small,no_modifier,hotdog,bad,"['loc2', 'loc2']","[1060, 1845]",frog_small.jpg,hotdog_big.jpg,violin_big.jpg,hotdog_small.jpg,93,train53,train,175,[],24,Yes,N/A,3,1,The price was fine.,Male,English,N/A,Chrome,Mac,900,1440,19.4816,
730,List2,firealarm_big.jpg,contrast,Click on the big violin,.loc4,.loc1,.loc3,.loc2,big,modifier,violin,bad,"['loc2', 'loc2', 'loc2']","[1225, 2410, 3251]",beaker_small.jpg,maracas_small.jpg,violin_small.jpg,violin_big.jpg,53,train13,train,176,[],24,Yes,N/A,3,1,The price was fine.,Male,English,N/A,Chrome,Mac,900,1440,19.4816,
730,List2,laundrybasket_red.jpg,semantic_control,Click on the crib,.loc1,.loc2,.loc4,.loc3,small,no_modifier,crib,bad,"['loc2', 'loc2']","[1533, 2366]",laundrybasket_white.jpg,crib_big.jpg,bootie_big.jpg,crib_small.jpg,248,filler128,filler,177,[],24,Yes,N/A,3,1,The price was fine.,Male,English,N/A,Chrome,Mac,900,1440,19.4816,
730,List2,icecreambar_big.jpg,contrast_control,Click on the shovel,.loc1,.loc2,.loc4,.loc3,small,no_modifier,shovel,bad,"['loc1', 'loc2']","[1177, 2295]",icecreambar_small.jpg,shovel_big.jpg,veggieplatter_big.jpg,shovel_small.jpg,186,filler66,filler,178,[],24,Yes,N/A,3,1,The price was fine.,Male,English,N/A,Chrome,Mac,900,1440,19.4816,
730,List2,wreath_big.jpg,contrast_control,Click on the kangaroo,.loc4,.loc1,.loc3,.loc2,small,no_modifier,kangaroo,bad,"['loc1', 'loc1']","[1041, 1770]",wreath_small.jpg,kangaroo_big.jpg,ghost_big.jpg,kangaroo_small.jpg,238,filler118,filler,179,[],24,Yes,N/A,3,1,The price was fine.,Male,English,N/A,Chrome,Mac,900,1440,19.4816,
730,List2,candycanes_big.jpg,contrast,Click on the small snail,.loc1,.loc2,.loc4,.loc3,small,modifier,snail,bad,"['loc2', 'loc3', 'loc3']","[1416, 3207, 3751]",radish_small.jpg,alien_big.jpg,snail_big.jpg,snail_small.jpg,76,train36,train,180,[],24,Yes,N/A,3,1,The price was fine.,Male,English,N/A,Chrome,Mac,900,1440,19.4816,
730,List2,wheelbarrow_blue.jpg,semantic_control,Click on the teepee,.loc1,.loc3,.loc4,.loc2,big,no_modifier,teepee,bad,"['loc1', 'loc2']","[1105, 2185]",wheelbarrow_red.jpg,teepee_small.jpg,manatee_small.jpg,teepee_big.jpg,259,filler139,filler,181,[],24,Yes,N/A,3,1,The price was fine.,Male,English,N/A,Chrome,Mac,900,1440,19.4816,
730,List2,molecule_big.jpg,no_contrast,Click on the big lock,.loc2,.loc1,.loc3,.loc4,big,modifier,lock,bad,"['loc2', 'loc4', 'loc4']","[1024, 2966, 3591]",sneaker_small.jpg,fan_small.jpg,fan_small.jpg,lock_big.jpg,38,test38,test,182,[],24,Yes,N/A,3,1,The price was fine.,Male,English,N/A,Chrome,Mac,900,1440,19.4816,
730,List2,globe_big.jpg,contrast_control,Click on the pie,.loc1,.loc4,.loc2,.loc3,small,no_modifier,pie,bad,"['loc1', 'loc4']","[1177, 2495]",globe_small.jpg,pie_big.jpg,bandage_big.jpg,pie_small.jpg,216,filler96,filler,183,[],24,Yes,N/A,3,1,The price was fine.,Male,English,N/A,Chrome,Mac,900,1440,19.4816,
730,List2,bootie_big.jpg,semantic_contrast,Click on the red wine,.loc1,.loc2,.loc3,.loc4,red,modifier,wine,bad,"['loc2', 'loc4', 'loc4']","[1136, 2169, 2697]",jar_small.jpg,cockerspaniel.jpg,wine_white.jpg,wine_red.jpg,128,filler8,filler,184,[],24,Yes,N/A,3,1,The price was fine.,Male,English,N/A,Chrome,Mac,900,1440,19.4816,
730,List2,legoman_cult.jpg,semantic_control,Click on the horse,.loc2,.loc3,.loc4,.loc1,small,no_modifier,horse,bad,"['loc3', 'loc3']","[969, 1653]",legoman_sailor.jpg,horse_big.jpg,bobcat_big.jpg,horse_small.jpg,250,filler130,filler,185,[],24,Yes,N/A,3,1,The price was fine.,Male,English,N/A,Chrome,Mac,900,1440,19.4816,
730,List2,dustpan_big.jpg,semantic_contrast,Click on the rainbow slinky,.loc1,.loc2,.loc3,.loc4,rainbow,modifier,slinky,bad,"['loc1', 'loc4', 'loc4']","[946, 2074, 2907]",measuringcups_small.jpg,golfiron.jpg,slinky_silver.jpg,slinky_rainbow.jpg,143,filler23,filler,186,[],24,Yes,N/A,3,1,The price was fine.,Male,English,N/A,Chrome,Mac,900,1440,19.4816,
730,List2,tweezers_big.jpg,semantic_contrast,Click on the green mixer,.loc1,.loc3,.loc2,.loc4,green,modifier,mixer,bad,"['loc1', 'loc4', 'loc4']","[1141, 2230, 2926]",skirt_small.jpg,spiderweb.jpg,mixer_red.jpg,mixer_green.jpg,172,filler52,filler,187,[],24,Yes,N/A,3,1,The price was fine.,Male,English,N/A,Chrome,Mac,900,1440,19.4816,
730,List2,iguana_big.jpg,contrast_control,Click on the firealarm,.loc3,.loc1,.loc2,.loc4,big,no_modifier,firealarm,bad,"['loc4', 'loc4']","[1561, 2582]",iguana_small.jpg,firealarm_small.jpg,leash_small.jpg,firealarm_big.jpg,233,filler113,filler,188,[],24,Yes,N/A,3,1,The price was fine.,Male,English,N/A,Chrome,Mac,900,1440,19.4816,
730,List2,artichoke_big.jpg,contrast_control,Click on the microscope,.loc1,.loc4,.loc2,.loc3,small,no_modifier,microscope,bad,"['loc1', 'loc4']","[961, 2066]",artichoke_small.jpg,microscope_big.jpg,plastichouse_big.jpg,microscope_small.jpg,210,filler90,filler,189,[],24,Yes,N/A,3,1,The price was fine.,Male,English,N/A,Chrome,Mac,900,1440,19.4816,
730,List2,turkey_big.jpg,semantic_contrast,Click on the electric guitar,.loc2,.loc4,.loc3,.loc1,electric,modifier,guitar,bad,"['loc1', 'loc1', 'loc1']","[881, 1692, 2341]",horseshoe_small.jpg,cardinal.jpg,guitar_classic.jpg,guitar_electric.jpg,124,filler4,filler,190,[],24,Yes,N/A,3,1,The price was fine.,Male,English,N/A,Chrome,Mac,900,1440,19.4816,
730,List2,washer_big.jpg,contrast_control,Click on the grill,.loc2,.loc3,.loc1,.loc4,small,no_modifier,grill,bad,"['loc2', 'loc3']","[1080, 2690]",washer_small.jpg,grill_big.jpg,clog_big.jpg,grill_small.jpg,226,filler106,filler,191,[],24,Yes,N/A,3,1,The price was fine.,Male,English,N/A,Chrome,Mac,900,1440,19.4816,
730,List2,wrench_big.jpg,semantic_contrast,Click on the open lock,.loc1,.loc4,.loc2,.loc3,open,modifier,lock,bad,"['loc1', 'loc3', 'loc3']","[997, 2134, 2846]",jumprope_small.jpg,speakers.jpg,lock_closed.jpg,lock_open.jpg,171,filler51,filler,192,[],24,Yes,N/A,3,1,The price was fine.,Male,English,N/A,Chrome,Mac,900,1440,19.4816,
730,List2,clock_cuckoo.jpg,semantic_control,Click on the sheep,.loc2,.loc1,.loc3,.loc4,small,no_modifier,sheep,bad,"['loc1', 'loc1']","[1073, 1846]",clock_grandfather.jpg,sheep_big.jpg,payphone_big.jpg,sheep_small.jpg,288,filler168,filler,193,[],24,Yes,N/A,3,1,The price was fine.,Male,English,N/A,Chrome,Mac,900,1440,19.4816,
730,List2,bill_big.jpg,contrast,Click on the big camera,.loc3,.loc2,.loc1,.loc4,big,modifier,camera,bad,"['loc4', 'loc4', 'loc4']","[1610, 2138, 2755]",wheelchair_small.jpg,camera_small.jpg,camera_small.jpg,camera_big.jpg,13,test13,test,194,[],24,Yes,N/A,3,1,The price was fine.,Male,English,N/A,Chrome,Mac,900,1440,19.4816,
730,List2,crutches_big.jpg,semantic_contrast,Click on the round tupperware,.loc4,.loc3,.loc1,.loc2,round,modifier,tupperware,bad,"['loc2', 'loc2', 'loc2']","[1113, 2607, 3240]",powder_small.jpg,rockingchair.jpg,tupperware_rectangular.jpg,tupperware_round.jpg,162,filler42,filler,195,[],24,Yes,N/A,3,1,The price was fine.,Male,English,N/A,Chrome,Mac,900,1440,19.4816,
730,List2,scarf_big.jpg,contrast_control,Click on the cane,.loc4,.loc2,.loc1,.loc3,big,no_modifier,cane,bad,"['loc4', 'loc3']","[993, 2115]",scarf_small.jpg,cane_small.jpg,stampset_small.jpg,cane_big.jpg,205,filler85,filler,196,[],24,Yes,N/A,3,1,The price was fine.,Male,English,N/A,Chrome,Mac,900,1440,19.4816,
730,List2,gummybears_big.jpg,semantic_contrast,Click on the glazed donut,.loc1,.loc3,.loc4,.loc2,glazed,modifier,donut,bad,"['loc1', 'loc2', 'loc2']","[1029, 2967, 3415]",organ_small.jpg,lighter.jpg,donut_powdered.jpg,donut_glazed.jpg,148,filler28,filler,197,[],24,Yes,N/A,3,1,The price was fine.,Male,English,N/A,Chrome,Mac,900,1440,19.4816,
730,List2,sandbox_big.jpg,semantic_contrast,Click on the lion doorknocker,.loc2,.loc4,.loc3,.loc1,lion,modifier,doorknocker,bad,"['loc1', 'loc1', 'loc1']","[961, 1677, 2118]",peppershaker_small.jpg,rug.jpg,doorknocker_dragon.jpg,doorknocker_lion.jpg,155,filler35,filler,198,[],24,Yes,N/A,3,1,The price was fine.,Male,English,N/A,Chrome,Mac,900,1440,19.4816,
730,List2,molecule_big.jpg,contrast_control,Click on the deer,.loc1,.loc2,.loc4,.loc3,big,no_modifier,deer,bad,"['loc3', 'loc3']","[1290, 1979]",molecule_small.jpg,deer_small.jpg,cushion_small.jpg,deer_big.jpg,231,filler111,filler,199,[],24,Yes,N/A,3,1,The price was fine.,Male,English,N/A,Chrome,Mac,900,1440,19.4816,
730,List2,notebook_open.jpg,semantic_control,Click on the burrito,.loc1,.loc2,.loc4,.loc3,small,no_modifier,burrito,bad,"['loc1', 'loc2']","[1017, 2159]",notebook_closed.jpg,burrito_big.jpg,seesaw_big.jpg,burrito_small.jpg,276,filler156,filler,200,[],24,Yes,N/A,3,1,The price was fine.,Male,English,N/A,Chrome,Mac,900,1440,19.4816,
730,List2,phone_antique.jpg,semantic_control,Click on the chocolatebar,.loc4,.loc3,.loc1,.loc2,small,no_modifier,chocolatebar,bad,"['loc3', 'loc3']","[1769, 2417]",phone_modern.jpg,chocolatebar_big.jpg,scooter_big.jpg,chocolatebar_small.jpg,274,filler154,filler,201,[],24,Yes,N/A,3,1,The price was fine.,Male,English,N/A,Chrome,Mac,900,1440,19.4816,
730,List2,crown_big.jpg,contrast_control,Click on the desk,.loc3,.loc2,.loc4,.loc1,big,no_modifier,desk,bad,"['loc1', 'loc1']","[1317, 2109]",crown_small.jpg,desk_small.jpg,bowlofoatmeal_small.jpg,desk_big.jpg,219,filler99,filler,202,[],24,Yes,N/A,3,1,The price was fine.,Male,English,N/A,Chrome,Mac,900,1440,19.4816,
730,List2,basket_big.jpg,contrast,Click on the small feather,.loc2,.loc3,.loc1,.loc4,small,modifier,feather,bad,"['loc3', 'loc4', 'loc4']","[1321, 2674, 3166]",washer_small.jpg,feather_big.jpg,feather_big.jpg,feather_small.jpg,9,test9,test,203,[],24,Yes,N/A,3,1,The price was fine.,Male,English,N/A,Chrome,Mac,900,1440,19.4816,
730,List2,pinecone_big.jpg,no_contrast,Click on the boots,.loc3,.loc2,.loc4,.loc1,small,no_modifier,boots,bad,"['loc2', 'loc2']","[1201, 1866]",pancakes_small.jpg,boots_big.jpg,paperbag_big.jpg,boots_small.jpg,81,train41,train,204,[],24,Yes,N/A,3,1,The price was fine.,Male,English,N/A,Chrome,Mac,900,1440,19.4816,
730,List2,scroll_writing.jpg,semantic_control,Click on the hawk,.loc1,.loc2,.loc4,.loc3,big,no_modifier,hawk,bad,"['loc3', 'loc3']","[1982, 2655]",scroll_blank.jpg,hawk_small.jpg,redkettle_small.jpg,hawk_big.jpg,251,filler131,filler,205,[],24,Yes,N/A,3,1,The price was fine.,Male,English,N/A,Chrome,Mac,900,1440,19.4816,
730,List2,rollingpin_big.jpg,contrast,Click on the small spaceship,.loc3,.loc1,.loc4,.loc2,small,modifier,spaceship,bad,"['loc1', 'loc2', 'loc2']","[2363, 4104, 4833]",grill_small.jpg,fishbowl_big.jpg,spaceship_big.jpg,spaceship_small.jpg,46,train6,train,206,[],24,Yes,N/A,3,1,The price was fine.,Male,English,N/A,Chrome,Mac,900,1440,19.4816,
730,List2,orangephone_big.jpg,contrast,Click on the small guitar,.loc3,.loc2,.loc4,.loc1,small,modifier,guitar,bad,"['loc2', 'loc1', 'loc1']","[1082, 2179, 2927]",pie_small.jpg,guitar_big.jpg,guitar_big.jpg,guitar_small.jpg,16,test16,test,207,[],24,Yes,N/A,3,1,The price was fine.,Male,English,N/A,Chrome,Mac,900,1440,19.4816,
730,List2,neckpillow_pink.jpg,semantic_control,Click on the bowlingball,.loc2,.loc1,.loc3,.loc4,small,no_modifier,bowlingball,bad,"['loc1', 'loc1']","[1176, 2378]",neckpillow_purple.jpg,bowlingball_big.jpg,helicopter_big.jpg,bowlingball_small.jpg,266,filler146,filler,208,[],24,Yes,N/A,3,1,The price was fine.,Male,English,N/A,Chrome,Mac,900,1440,19.4816,
730,List2,dalmatian_big.jpg,contrast_control,Click on the dinosaur,.loc4,.loc1,.loc3,.loc2,big,no_modifier,dinosaur,bad,"['loc1', 'loc2']","[1449, 3094]",dalmatian_small.jpg,dinosaur_small.jpg,screwdriver_small.jpg,dinosaur_big.jpg,191,filler71,filler,209,[],24,Yes,N/A,3,1,The price was fine.,Male,English,N/A,Chrome,Mac,900,1440,19.4816,
730,List2,chick_big.jpg,no_contrast,Click on the bowlingpin,.loc3,.loc2,.loc4,.loc1,big,no_modifier,bowlingpin,bad,"['loc1', 'loc1']","[1226, 2587]",raspberry_small.jpg,bowlingpin_small.jpg,eagle_small.jpg,bowlingpin_big.jpg,110,train70,train,210,[],24,Yes,N/A,3,1,The price was fine.,Male,English,N/A,Chrome,Mac,900,1440,19.4816,
730,List2,stapler_big.jpg,no_contrast,Click on the big pickle,.loc3,.loc2,.loc4,.loc1,big,modifier,pickle,bad,"['loc4', 'loc4', 'loc1']","[1476, 2862, 4223]",tennisball_small.jpg,hammer_small.jpg,hammer_small.jpg,pickle_big.jpg,21,test21,test,211,[],24,Yes,N/A,3,1,The price was fine.,Male,English,N/A,Chrome,Mac,900,1440,19.4816,
730,List2,stove_big.jpg,contrast,Click on the small tree,.loc2,.loc1,.loc3,.loc4,small,modifier,tree,bad,"['loc2', 'loc4', 'loc4']","[1190, 3280, 4137]",fridge_small.jpg,tree_big.jpg,tree_big.jpg,tree_small.jpg,14,test14,test,212,[],24,Yes,N/A,3,1,The price was fine.,Male,English,N/A,Chrome,Mac,900,1440,19.4816,
730,List2,bone_big.jpg,contrast,Click on the small pencil,.loc1,.loc2,.loc4,.loc3,small,modifier,pencil,bad,"['loc2', 'loc3', 'loc3']","[2191, 3159, 3896]",screwdriver_small.jpg,pencil_big.jpg,pencil_big.jpg,pencil_small.jpg,3,test3,test,213,[],24,Yes,N/A,3,1,The price was fine.,Male,English,N/A,Chrome,Mac,900,1440,19.4816,
730,List2,shield_big.jpg,semantic_contrast,Click on the convertible car,.loc2,.loc3,.loc1,.loc4,convertible,modifier,car,bad,"['loc2', 'loc4', 'loc4']","[1430, 2999, 3607]",plum_small.jpg,pocketwatch.jpg,car_sedan.jpg,car_convertible.jpg,158,filler38,filler,214,[],24,Yes,N/A,3,1,The price was fine.,Male,English,N/A,Chrome,Mac,900,1440,19.4816,
730,List2,telescope_big.jpg,no_contrast,Click on the zebra,.loc4,.loc3,.loc1,.loc2,small,no_modifier,zebra,bad,"['loc3', 'loc3']","[1657, 2325]",icecreambar_small.jpg,zebra_big.jpg,bat_big.jpg,zebra_small.jpg,109,train69,train,215,[],24,Yes,N/A,3,1,The price was fine.,Male,English,N/A,Chrome,Mac,900,1440,19.4816,
730,List2,hourglass_big.jpg,contrast_control,Click on the bucket,.loc1,.loc4,.loc3,.loc2,small,no_modifier,bucket,bad,"['loc1', 'loc4']","[1472, 2714]",hourglass_small.jpg,bucket_big.jpg,ladybug_big.jpg,bucket_small.jpg,196,filler76,filler,216,[],24,Yes,N/A,3,1,The price was fine.,Male,English,N/A,Chrome,Mac,900,1440,19.4816,
730,List2,babybottle_big.jpg,semantic_contrast,Click on the yellow watch,.loc2,.loc3,.loc4,.loc1,yellow,modifier,watch,bad,"['loc3', 'loc1', 'loc1']","[1254, 2271, 2679]",snowshoes_small.jpg,staircase.jpg,watch_brown.jpg,watch_yellow.jpg,173,filler53,filler,217,[],24,Yes,N/A,3,1,The price was fine.,Male,English,N/A,Chrome,Mac,900,1440,19.4816,
730,List2,ring_big.jpg,no_contrast,Click on the lipstick,.loc3,.loc2,.loc1,.loc4,big,no_modifier,lipstick,bad,"['loc4', 'loc4']","[1321, 1929]",burrito_small.jpg,lipstick_small.jpg,wheel_small.jpg,lipstick_big.jpg,96,train56,train,218,[],24,Yes,N/A,3,1,The price was fine.,Male,English,N/A,Chrome,Mac,900,1440,19.4816,
730,List2,spraybottle_orange.jpg,semantic_control,Click on the kazoo,.loc4,.loc2,.loc1,.loc3,small,no_modifier,kazoo,bad,"['loc2', 'loc2']","[1662, 2310]",spraybottle_blue.jpg,kazoo_big.jpg,babyswing_big.jpg,kazoo_small.jpg,252,filler132,filler,219,[],24,Yes,N/A,3,1,The price was fine.,Male,English,N/A,Chrome,Mac,900,1440,19.4816,
730,List2,dalmatian_big.jpg,no_contrast,Click on the paperclip,.loc2,.loc4,.loc1,.loc3,big,no_modifier,paperclip,bad,"['loc3', 'loc3']","[1849, 3024]",blueberries_small.jpg,paperclip_small.jpg,airplane_small.jpg,paperclip_big.jpg,98,train58,train,220,[],24,Yes,N/A,3,1,The price was fine.,Male,English,N/A,Chrome,Mac,900,1440,19.4816,
730,List2,tricycle_plastic.jpg,semantic_control,Click on the wagon,.loc1,.loc4,.loc2,.loc3,small,no_modifier,wagon,bad,"['loc4', 'loc4']","[2056, 3325]",tricycle_red.jpg,wagon_big.jpg,turnip_big.jpg,wagon_small.jpg,272,filler152,filler,221,[],24,Yes,N/A,3,1,The price was fine.,Male,English,N/A,Chrome,Mac,900,1440,19.4816,
730,List2,faucet_big.jpg,contrast_control,Click on the recliner,.loc4,.loc2,.loc1,.loc3,small,no_modifier,recliner,bad,"['loc4', 'loc2']","[1673, 3452]",faucet_small.jpg,recliner_big.jpg,shapestoy_big.jpg,recliner_small.jpg,192,filler72,filler,222,[],24,Yes,N/A,3,1,The price was fine.,Male,English,N/A,Chrome,Mac,900,1440,19.4816,
730,List2,chips_single.jpg,semantic_control,Click on the window,.loc2,.loc3,.loc4,.loc1,big,no_modifier,window,bad,"['loc1', 'loc1']","[2613, 3398]",chips_multiple.jpg,window_small.jpg,saddle_small.jpg,window_big.jpg,281,filler161,filler,223,[],24,Yes,N/A,3,1,The price was fine.,Male,English,N/A,Chrome,Mac,900,1440,19.4816,
730,List2,scooter_big.jpg,semantic_contrast,Click on the pink cooler,.loc3,.loc4,.loc2,.loc1,pink,modifier,cooler,bad,"['loc1', 'loc1', 'loc1']","[1253, 2206, 2871]",pepperoni_small.jpg,rainboots.jpg,cooler_blue.jpg,cooler_pink.jpg,154,filler34,filler,224,[],24,Yes,N/A,3,1,The price was fine.,Male,English,N/A,Chrome,Mac,900,1440,19.4816,
730,List2,orangejuice_stemglass.jpg,semantic_control,Click on the blueberries,.loc4,.loc2,.loc3,.loc1,small,no_modifier,blueberries,bad,"['loc2', 'loc2']","[1041, 1730]",orangejuice_tallglass.jpg,blueberries_big.jpg,robe_big.jpg,blueberries_small.jpg,278,filler158,filler,225,[],24,Yes,N/A,3,1,The price was fine.,Male,English,N/A,Chrome,Mac,900,1440,19.4816,
730,List2,tambourine_big.jpg,contrast,Click on the small domino,.loc2,.loc1,.loc4,.loc3,small,modifier,domino,bad,"['loc4', 'loc4', 'loc3']","[957, 2270, 3079]",eggs_small.jpg,peeler_big.jpg,domino_big.jpg,domino_small.jpg,62,train22,train,226,[],24,Yes,N/A,3,1,The price was fine.,Male,English,N/A,Chrome,Mac,900,1440,19.4816,
730,List2,iceskates_figure.jpg,semantic_control,Click on the nutcracker,.loc3,.loc2,.loc4,.loc1,small,no_modifier,nutcracker,bad,"['loc2', 'loc2']","[1265, 1737]",iceskates_hockey.jpg,nutcracker_big.jpg,wrench_big.jpg,nutcracker_small.jpg,298,filler178,filler,227,[],24,Yes,N/A,3,1,The price was fine.,Male,English,N/A,Chrome,Mac,900,1440,19.4816,
730,List2,broom_big.jpg,contrast_control,Click on the stapler,.loc3,.loc4,.loc2,.loc1,big,no_modifier,stapler,bad,"['loc1', 'loc1']","[1493, 2382]",broom_small.jpg,stapler_small.jpg,lacrosse_small.jpg,stapler_big.jpg,181,filler61,filler,228,[],24,Yes,N/A,3,1,The price was fine.,Male,English,N/A,Chrome,Mac,900,1440,19.4816,
730,List2,goose_big.jpg,no_contrast,Click on the paintbrush,.loc1,.loc4,.loc2,.loc3,big,no_modifier,paintbrush,bad,"['loc3', 'loc3']","[1265, 1925]",parrot_small.jpg,paintbrush_small.jpg,boat_small.jpg,paintbrush_big.jpg,114,train74,train,229,[],24,Yes,N/A,3,1,The price was fine.,Male,English,N/A,Chrome,Mac,900,1440,19.4816,
730,List2,teepee_big.jpg,contrast,Click on the big hammock,.loc1,.loc2,.loc3,.loc4,big,modifier,hammock,bad,"['loc1', 'loc1', 'loc4']","[1104, 2490, 3803]",bowlofoatmeal_small.jpg,pagoda_small.jpg,hammock_small.jpg,hammock_big.jpg,79,train39,train,230,[],24,Yes,N/A,3,1,The price was fine.,Male,English,N/A,Chrome,Mac,900,1440,19.4816,
730,List2,payphone_big.jpg,semantic_contrast,Click on the red apple,.loc4,.loc1,.loc2,.loc3,red,modifier,apple,bad,"['loc1', 'loc3', 'loc3']","[1493, 2414, 3159]",saddle_small.jpg,scale.jpg,apple_green.jpg,apple_red.jpg,166,filler46,filler,231,[],24,Yes,N/A,3,1,The price was fine.,Male,English,N/A,Chrome,Mac,900,1440,19.4816,
730,List2,pearls_big.jpg,contrast_control,Click on the trophy,.loc2,.loc4,.loc3,.loc1,small,no_modifier,trophy,bad,"['loc2', 'loc4']","[1350, 2943]",pearls_small.jpg,trophy_big.jpg,toyfarm_big.jpg,trophy_small.jpg,190,filler70,filler,232,[],24,Yes,N/A,3,1,The price was fine.,Male,English,N/A,Chrome,Mac,900,1440,19.4816,
730,List2,lightbulb_big.jpg,contrast_control,Click on the brain,.loc2,.loc3,.loc1,.loc4,small,no_modifier,brain,bad,"['loc2', 'loc3']","[1128, 2069]",lightbulb_small.jpg,brain_big.jpg,candycanes_big.jpg,brain_small.jpg,222,filler102,filler,233,[],24,Yes,N/A,3,1,The price was fine.,Male,English,N/A,Chrome,Mac,900,1440,19.4816,
730,List2,puppy_big.jpg,contrast_control,Click on the bone,.loc4,.loc2,.loc1,.loc3,big,no_modifier,bone,bad,"['loc3', 'loc3']","[1121, 2130]",puppy_small.jpg,bone_small.jpg,pinkdice_small.jpg,bone_big.jpg,203,filler83,filler,234,[],24,Yes,N/A,3,1,The price was fine.,Male,English,N/A,Chrome,Mac,900,1440,19.4816,
730,List2,exerciseball_big.jpg,semantic_contrast,Click on the hawaiian shirt,.loc1,.loc2,.loc4,.loc3,hawaiian,modifier,shirt,bad,"['loc1', 'loc3', 'loc3']","[1833, 2998, 3599]",policecar_small.jpg,yellowrose.jpg,shirt_corvette.jpg,shirt_hawaiian.jpg,163,filler43,filler,235,[],24,Yes,N/A,3,1,The price was fine.,Male,English,N/A,Chrome,Mac,900,1440,19.4816,
730,List2,measuringtape_black.jpg,semantic_control,Click on the lighthouse,.loc1,.loc4,.loc2,.loc3,small,no_modifier,lighthouse,bad,"['loc4', 'loc4']","[1682, 2438]",measuringtape_orange.jpg,lighthouse_big.jpg,batteries_big.jpg,lighthouse_small.jpg,254,filler134,filler,236,[],24,Yes,N/A,3,1,The price was fine.,Male,English,N/A,Chrome,Mac,900,1440,19.4816,
730,List2,windmill_big.jpg,contrast_control,Click on the kiwi,.loc4,.loc1,.loc3,.loc2,big,no_modifier,kiwi,bad,"['loc2', 'loc2']","[872, 1721]",windmill_small.jpg,kiwi_small.jpg,tote_small.jpg,kiwi_big.jpg,239,filler119,filler,237,[],24,Yes,N/A,3,1,The price was fine.,Male,English,N/A,Chrome,Mac,900,1440,19.4816,
730,List2,ghost_big.jpg,no_contrast,Click on the whistle,.loc1,.loc4,.loc2,.loc3,big,no_modifier,whistle,bad,"['loc3', 'loc3']","[1321, 2358]",sheep_small.jpg,whistle_small.jpg,banjo_small.jpg,whistle_big.jpg,108,train68,train,238,[],24,Yes,N/A,3,1,The price was fine.,Male,English,N/A,Chrome,Mac,900,1440,19.4816,
730,List2,jacket_big.jpg,contrast_control,Click on the scissors,.loc4,.loc2,.loc3,.loc1,big,no_modifier,scissors,bad,"['loc1', 'loc1']","[1065, 2033]",jacket_small.jpg,scissors_small.jpg,toyoctopus_small.jpg,scissors_big.jpg,197,filler77,filler,239,[],24,Yes,N/A,3,1,The price was fine.,Male,English,N/A,Chrome,Mac,900,1440,19.4816,
730,List2,origami_big.jpg,no_contrast,Click on the cactus,.loc4,.loc3,.loc1,.loc2,small,no_modifier,cactus,bad,"['loc3', 'loc3']","[1120, 1933]",brooch_small.jpg,cactus_big.jpg,lifevest_big.jpg,cactus_small.jpg,83,train43,train,240,[],24,Yes,N/A,3,1,The price was fine.,Male,English,N/A,Chrome,Mac,900,1440,19.4816,
730,List2,playpen_big.jpg,semantic_contrast,Click on the narrow tire,.loc4,.loc2,.loc3,.loc1,narrow,modifier,tire,bad,"['loc1', 'loc2', 'loc1']","[3251, 4936, 6156]",toytrain_small.jpg,wetsuit.jpg,tire_wide.jpg,tire_narrow.jpg,180,filler60,filler,241,[],24,Yes,N/A,3,1,The price was fine.,Male,English,N/A,Chrome,Mac,900,1440,19.4816,
730,List2,suitcase_big.jpg,contrast,Click on the small bike,.loc3,.loc1,.loc4,.loc2,small,modifier,bike,bad,"['loc1', 'loc2', 'loc2']","[990, 2236, 2764]",wavevase_small.jpg,bike_big.jpg,bike_big.jpg,bike_small.jpg,11,test11,test,242,[],24,Yes,N/A,3,1,The price was fine.,Male,English,N/A,Chrome,Mac,900,1440,19.4816,
730,List2,harmonica_big.jpg,no_contrast,Click on the screen,.loc2,.loc3,.loc4,.loc1,big,no_modifier,screen,bad,"['loc1', 'loc1']","[1240, 1928]",peanut_small.jpg,screen_small.jpg,necklace_small.jpg,screen_big.jpg,112,train72,train,243,[],24,Yes,N/A,3,1,The price was fine.,Male,English,N/A,Chrome,Mac,900,1440,19.4816,
730,List2,robot_blue.jpg,semantic_control,Click on the pants,.loc4,.loc3,.loc2,.loc1,big,no_modifier,pants,bad,"['loc1', 'loc1']","[879, 1604]",robot_purple.jpg,pants_small.jpg,parsley_small.jpg,pants_big.jpg,295,filler175,filler,244,[],24,Yes,N/A,3,1,The price was fine.,Male,English,N/A,Chrome,Mac,900,1440,19.4816,
730,List2,puppy_big.jpg,contrast,Click on the small boat,.loc3,.loc1,.loc2,.loc4,small,modifier,boat,bad,"['loc1', 'loc1', 'loc4']","[921, 1762, 2794]",lighthouse_small.jpg,usbstick_big.jpg,boat_big.jpg,boat_small.jpg,74,train34,train,245,[],24,Yes,N/A,3,1,The price was fine.,Male,English,N/A,Chrome,Mac,900,1440,19.4816,
730,List2,sportsbasket_big.jpg,semantic_contrast,Click on the cocktail umbrella,.loc3,.loc4,.loc1,.loc2,cocktail,modifier,umbrella,bad,"['loc2', 'loc2', 'loc2']","[1105, 6302, 6959]",corndog_small.jpg,potofgold.jpg,umbrella_rain.jpg,umbrella_cocktail.jpg,159,filler39,filler,246,[],24,Yes,N/A,3,1,The price was fine.,Male,English,N/A,Chrome,Mac,900,1440,19.4816,
730,List2,eiffeltower_big.jpg,no_contrast,Click on the rooster,.loc1,.loc3,.loc2,.loc4,big,no_modifier,rooster,bad,"['loc4', 'loc4']","[1610, 2299]",glove_small.jpg,rooster_small.jpg,teabag_small.jpg,rooster_big.jpg,100,train60,train,247,[],24,Yes,N/A,3,1,The price was fine.,Male,English,N/A,Chrome,Mac,900,1440,19.4816,
730,List2,ostrich_big.jpg,contrast_control,Click on the sponge,.loc1,.loc3,.loc2,.loc4,big,no_modifier,sponge,bad,"['loc1', 'loc4']","[1021, 2576]",ostrich_small.jpg,sponge_small.jpg,shears_small.jpg,sponge_big.jpg,199,filler79,filler,248,[],24,Yes,N/A,3,1,The price was fine.,Male,English,N/A,Chrome,Mac,900,1440,19.4816,
730,List2,microwave_big.jpg,no_contrast,Click on the small bottle,.loc4,.loc2,.loc1,.loc3,small,modifier,bottle,bad,"['loc1', 'loc1', 'loc3']","[2462, 3166, 4152]",paperclips_small.jpg,starfish_big.jpg,starfish_big.jpg,bottle_small.jpg,35,test35,test,249,[],24,Yes,N/A,3,1,The price was fine.,Male,English,N/A,Chrome,Mac,900,1440,19.4816,
730,List2,hookah_big.jpg,contrast_control,Click on the panda,.loc1,.loc2,.loc3,.loc4,big,no_modifier,panda,bad,"['loc4', 'loc4']","[1281, 2423]",hookah_small.jpg,panda_small.jpg,brooch_small.jpg,panda_big.jpg,221,filler101,filler,250,[],24,Yes,N/A,3,1,The price was fine.,Male,English,N/A,Chrome,Mac,900,1440,19.4816,
730,List2,feather_gold.jpg,semantic_control,Click on the telescope,.loc1,.loc2,.loc4,.loc3,big,no_modifier,telescope,bad,"['loc1', 'loc3']","[1416, 2706]",feather_blue.jpg,telescope_small.jpg,thermos_small.jpg,telescope_big.jpg,289,filler169,filler,251,[],24,Yes,N/A,3,1,The price was fine.,Male,English,N/A,Chrome,Mac,900,1440,19.4816,
730,List2,helicopter_big.jpg,semantic_contrast,Click on the open backpack,.loc4,.loc3,.loc2,.loc1,open,modifier,backpack,bad,"['loc3', 'loc1', 'loc1']","[1749, 3183, 3815]",meat_small.jpg,grater.jpg,backpack_closed.jpg,backpack_open.jpg,144,filler24,filler,252,[],24,Yes,N/A,3,1,The price was fine.,Male,English,N/A,Chrome,Mac,900,1440,19.4816,
730,List2,fishingpole_big.jpg,contrast_control,Click on the laptop,.loc3,.loc2,.loc1,.loc4,big,no_modifier,laptop,bad,"['loc2', 'loc4']","[1589, 2510]",fishingpole_small.jpg,laptop_small.jpg,hay_small.jpg,laptop_big.jpg,215,filler95,filler,253,[],24,Yes,N/A,3,1,The price was fine.,Male,English,N/A,Chrome,Mac,900,1440,19.4816,
730,List2,pooltable_big.jpg,contrast,Click on the small banjo,.loc3,.loc2,.loc1,.loc4,small,modifier,banjo,bad,"['loc2', 'loc2', 'loc4']","[1977, 3607, 4528]",crib_small.jpg,dropper_big.jpg,banjo_big.jpg,banjo_small.jpg,68,train28,train,254,[],24,Yes,N/A,3,1,The price was fine.,Male,English,N/A,Chrome,Mac,900,1440,19.4816,
730,List2,ladybug_big.jpg,contrast,Click on the big orange,.loc2,.loc1,.loc3,.loc4,big,modifier,orange,bad,"['loc4', 'loc4', 'loc4']","[1065, 2050, 2658]",cone_small.jpg,orange_small.jpg,orange_small.jpg,orange_big.jpg,8,test8,test,255,[],24,Yes,N/A,3,1,The price was fine.,Male,English,N/A,Chrome,Mac,900,1440,19.4816,
730,List2,partyhat_big.jpg,no_contrast,Click on the vase,.loc1,.loc4,.loc2,.loc3,small,no_modifier,vase,bad,"['loc4', 'loc4']","[1229, 1965]",burger_small.jpg,vase_big.jpg,suit_big.jpg,vase_small.jpg,113,train73,train,256,[],24,Yes,N/A,3,1,The price was fine.,Male,English,N/A,Chrome,Mac,900,1440,19.4816,
730,List2,birdcage_big.jpg,semantic_contrast,Click on the black shorts,.loc4,.loc2,.loc3,.loc1,black,modifier,shorts,bad,"['loc2', 'loc1', 'loc1']","[1264, 2250, 2838]",thermos_small.jpg,zucchini.jpg,shorts_blue.jpg,shorts_black.jpg,175,filler55,filler,257,[],24,Yes,N/A,3,1,The price was fine.,Male,English,N/A,Chrome,Mac,900,1440,19.4816,
730,List2,cane_big.jpg,contrast,Click on the small onion,.loc3,.loc4,.loc1,.loc2,small,modifier,onion,bad,"['loc4', 'loc2', 'loc2']","[1265, 2308, 2866]",alligator_small.jpg,onion_big.jpg,onion_big.jpg,onion_small.jpg,5,test5,test,258,[],24,Yes,N/A,3,1,The price was fine.,Male,English,N/A,Chrome,Mac,900,1440,19.4816,
730,List2,weddingcake_big.jpg,semantic_contrast,Click on the red bathingsuit,.loc2,.loc3,.loc4,.loc1,red,modifier,bathingsuit,bad,"['loc1', 'loc1', 'loc1']","[1597, 2461, 3246]",jackolantern_small.jpg,chopsticks.jpg,bathingsuit_blue.jpg,bathingsuit_red.jpg,127,filler7,filler,259,[],24,Yes,N/A,3,1,The price was fine.,Male,English,N/A,Chrome,Mac,900,1440,19.4816,
730,List2,vacuum_handheld.jpg,semantic_control,Click on the pig,.loc2,.loc4,.loc3,.loc1,big,no_modifier,pig,bad,"['loc1', 'loc1']","[1777, 2614]",vacuum_standing.jpg,pig_small.jpg,toytrain_small.jpg,pig_big.jpg,291,filler171,filler,260,[],24,Yes,N/A,3,1,The price was fine.,Male,English,N/A,Chrome,Mac,900,1440,19.4816,
730,List2,barberchair_big.jpg,semantic_contrast,Click on the pink eraser,.loc2,.loc1,.loc4,.loc3,pink,modifier,eraser,bad,"['loc1', 'loc3', 'loc3']","[1192, 2297, 2738]",thimble_small.jpg,streetlamp.jpg,eraser_redandblue.jpg,eraser_pink.jpg,174,filler54,filler,261,[],24,Yes,N/A,3,1,The price was fine.,Male,English,N/A,Chrome,Mac,900,1440,19.4816,
730,List2,chick_big.jpg,contrast_control,Click on the helmet,.loc4,.loc1,.loc3,.loc2,big,no_modifier,helmet,bad,"['loc2', 'loc2']","[1149, 1725]",chick_small.jpg,helmet_small.jpg,cables_small.jpg,helmet_big.jpg,185,filler65,filler,262,[],24,Yes,N/A,3,1,The price was fine.,Male,English,N/A,Chrome,Mac,900,1440,19.4816,
730,List2,rollingpin_big.jpg,contrast_control,Click on the tape,.loc1,.loc2,.loc3,.loc4,big,no_modifier,tape,bad,"['loc1', 'loc1']","[938, 1386]",rollingpin_small.jpg,tape_small.jpg,cookiecutter_small.jpg,tape_big.jpg,217,filler97,filler,263,[],24,Yes,N/A,3,1,The price was fine.,Male,English,N/A,Chrome,Mac,900,1440,19.4816,
730,List2,bottleopener_big.jpg,semantic_contrast,Click on the blue bow,.loc3,.loc1,.loc2,.loc4,blue,modifier,bow,bad,"['loc1', 'loc4', 'loc4']","[9884, 11462, 12342]",toiletplunger_small.jpg,buffalowings.jpg,bow_pink.jpg,bow_blue.jpg,177,filler57,filler,264,[],24,Yes,N/A,3,1,The price was fine.,Male,English,N/A,Chrome,Mac,900,1440,19.4816,
730,List2,castanets_big.jpg,semantic_contrast,Click on the strawberry pie,.loc4,.loc2,.loc3,.loc1,strawberry,modifier,pie,bad,"['loc1', 'loc1', 'loc1']","[1429, 2574, 4103]",toyhorse_small.jpg,jalapeno.jpg,pie_cherry.jpg,pie_strawberry.jpg,178,filler58,filler,265,[],24,Yes,N/A,3,1,The price was fine.,Male,English,N/A,Chrome,Mac,900,1440,19.4816,
730,List2,dinosaur_big.jpg,no_contrast,Click on the big dog,.loc3,.loc4,.loc1,.loc2,big,modifier,dog,bad,"['loc3', 'loc3', 'loc2']","[3640, 5630, 6703]",palette_small.jpg,bike_small.jpg,bike_small.jpg,dog_big.jpg,31,test31,test,266,[],24,Yes,N/A,3,1,The price was fine.,Male,English,N/A,Chrome,Mac,900,1440,19.4816,
730,List2,beaker_big.jpg,contrast_control,Click on the fridge,.loc4,.loc2,.loc1,.loc3,small,no_modifier,fridge,bad,"['loc2', 'loc2']","[1786, 2787]",beaker_small.jpg,fridge_big.jpg,groceries_big.jpg,fridge_small.jpg,214,filler94,filler,267,[],24,Yes,N/A,3,1,The price was fine.,Male,English,N/A,Chrome,Mac,900,1440,19.4816,
730,List2,panflute_big.jpg,contrast,Click on the big brush,.loc1,.loc2,.loc3,.loc4,big,modifier,brush,bad,"['loc4', 'loc4', 'loc4']","[4228, 6295, 7119]",dolphin_small.jpg,brush_small.jpg,brush_small.jpg,brush_big.jpg,2,test2,test,268,[],24,Yes,N/A,3,1,The price was fine.,Male,English,N/A,Chrome,Mac,900,1440,19.4816,
730,List2,jetski_big.jpg,contrast_control,Click on the sneaker,.loc4,.loc3,.loc1,.loc2,small,no_modifier,sneaker,bad,"['loc3', 'loc3']","[3327, 4127]",jetski_small.jpg,sneaker_big.jpg,orangephone_big.jpg,sneaker_small.jpg,198,filler78,filler,269,[],24,Yes,N/A,3,1,The price was fine.,Male,English,N/A,Chrome,Mac,900,1440,19.4816,
730,List2,fireextinguisher_big.jpg,contrast_control,Click on the fountain,.loc3,.loc4,.loc1,.loc2,small,no_modifier,fountain,bad,"['loc3', 'loc4']","[1268, 3543]",fireextinguisher_small.jpg,fountain_big.jpg,eiffeltower_big.jpg,fountain_small.jpg,234,filler114,filler,270,[],24,Yes,N/A,3,1,The price was fine.,Male,English,N/A,Chrome,Mac,900,1440,19.4816,
730,List2,cork_big.jpg,contrast,Click on the small hammer,.loc3,.loc1,.loc2,.loc4,small,modifier,hammer,bad,"['loc1', 'loc4', 'loc4']","[1248, 3118, 4198]",yoyo_small.jpg,hammer_big.jpg,hammer_big.jpg,hammer_small.jpg,1,test1,test,271,[],24,Yes,N/A,3,1,The price was fine.,Male,English,N/A,Chrome,Mac,900,1440,19.4816,
730,List2,cougar_big.jpg,contrast_control,Click on the pizza,.loc3,.loc2,.loc4,.loc1,small,no_modifier,pizza,bad,"['loc3', 'loc2']","[2086, 3919]",cougar_small.jpg,pizza_big.jpg,blackspaceship_big.jpg,pizza_small.jpg,188,filler68,filler,272,[],24,Yes,N/A,3,1,The price was fine.,Male,English,N/A,Chrome,Mac,900,1440,19.4816,
730,List2,hairclip_big.jpg,contrast_control,Click on the frenchfries,.loc2,.loc3,.loc1,.loc4,big,no_modifier,frenchfries,bad,"['loc1', 'loc4']","[1048, 4120]",hairclip_small.jpg,frenchfries_small.jpg,blender_small.jpg,frenchfries_big.jpg,235,filler115,filler,273,[],24,Yes,N/A,3,1,The price was fine.,Male,English,N/A,Chrome,Mac,900,1440,19.4816,
730,List2,coral_big.jpg,no_contrast,Click on the elephant,.loc2,.loc1,.loc3,.loc4,big,no_modifier,elephant,bad,"['loc4', 'loc4']","[1665, 2615]",garlic_small.jpg,elephant_small.jpg,butterfly_small.jpg,elephant_big.jpg,88,train48,train,274,[],24,Yes,N/A,3,1,The price was fine.,Male,English,N/A,Chrome,Mac,900,1440,19.4816,
730,List2,floppy_big.jpg,contrast_control,Click on the mug,.loc3,.loc4,.loc2,.loc1,big,no_modifier,mug,bad,"['loc3', 'loc1']","[1521, 3018]",floppy_small.jpg,mug_small.jpg,compass_small.jpg,mug_big.jpg,193,filler73,filler,275,[],24,Yes,N/A,3,1,The price was fine.,Male,English,N/A,Chrome,Mac,900,1440,19.4816,
730,List2,turnip_big.jpg,semantic_contrast,Click on the fivecent coins,.loc2,.loc1,.loc4,.loc3,fivecent,modifier,coins,bad,"['loc3', 'loc3', 'loc3']","[2775, 6342, 7503]",pomegranate_small.jpg,rake.jpg,coins_tencent.jpg,coins_fivecent.jpg,160,filler40,filler,276,[],24,Yes,N/A,3,1,The price was fine.,Male,English,N/A,Chrome,Mac,900,1440,19.4816,
730,List2,frenchfries_big.jpg,contrast,Click on the big flute,.loc2,.loc4,.loc3,.loc1,big,modifier,flute,bad,"['loc2', 'loc2', 'loc1']","[14604, 16045, 17102]",xylophone_small.jpg,toolbelt_small.jpg,flute_small.jpg,flute_big.jpg,55,train15,train,277,[],24,Yes,N/A,3,1,The price was fine.,Male,English,N/A,Chrome,Mac,900,1440,19.4816,
730,List2,panda_big.jpg,contrast,Click on the big paperbag,.loc4,.loc3,.loc1,.loc2,big,modifier,paperbag,bad,"['loc1', 'loc2', 'loc2']","[1004, 2286, 3151]",gong_small.jpg,pencilsharpener_small.jpg,paperbag_small.jpg,paperbag_big.jpg,41,train1,train,278,[],24,Yes,N/A,3,1,The price was fine.,Male,English,N/A,Chrome,Mac,900,1440,19.4816,
730,List2,sandwich_big.jpg,contrast_control,Click on the barrel,.loc4,.loc1,.loc2,.loc3,big,no_modifier,barrel,bad,"['loc3', 'loc3']","[1193, 3159]",sandwich_small.jpg,barrel_small.jpg,xylophone_small.jpg,barrel_big.jpg,207,filler87,filler,279,[],24,Yes,N/A,3,1,The price was fine.,Male,English,N/A,Chrome,Mac,900,1440,19.4816,
730,List2,pen_green.jpg,semantic_control,Click on the lollipops,.loc4,.loc1,.loc2,.loc3,big,no_modifier,lollipops,bad,"['loc3', 'loc3']","[1682, 2806]",pen_black.jpg,lollipops_small.jpg,pitchfork_small.jpg,lollipops_big.jpg,275,filler155,filler,280,[],24,Yes,N/A,3,1,The price was fine.,Male,English,N/A,Chrome,Mac,900,1440,19.4816,
730,List2,bobcat_big.jpg,semantic_contrast,Click on the one dollarbills,.loc4,.loc3,.loc2,.loc1,one,modifier,dollarbills,bad,"['loc3', 'loc3', 'loc1']","[1105, 2017, 3298]",juicer_small.jpg,daisies.jpg,dollarbills_five.jpg,dollarbills_one.jpg,130,filler10,filler,281,[],24,Yes,N/A,3,1,The price was fine.,Male,English,N/A,Chrome,Mac,900,1440,19.4816,
730,List2,fishingpole_big.jpg,contrast,Click on the small saw,.loc1,.loc3,.loc2,.loc4,small,modifier,saw,bad,"['loc1', 'loc2', 'loc4']","[948, 2750, 4368]",dart_small.jpg,potatochips_big.jpg,saw_big.jpg,saw_small.jpg,50,train10,train,282,[],24,Yes,N/A,3,1,The price was fine.,Male,English,N/A,Chrome,Mac,900,1440,19.4816,
730,List2,noisemaker_purple.jpg,semantic_control,Click on the swan,.loc2,.loc1,.loc4,.loc3,big,no_modifier,swan,bad,"['loc3', 'loc3']","[1149, 1909]",noisemaker_green.jpg,swan_small.jpg,skirt_small.jpg,swan_big.jpg,285,filler165,filler,283,[],24,Yes,N/A,3,1,The price was fine.,Male,English,N/A,Chrome,Mac,900,1440,19.4816,
730,List2,croissant_big.jpg,contrast_control,Click on the soap,.loc4,.loc3,.loc2,.loc1,big,no_modifier,soap,bad,"['loc1', 'loc1']","[1529, 2602]",croissant_small.jpg,soap_small.jpg,sportsbag_small.jpg,soap_big.jpg,189,filler69,filler,284,[],24,Yes,N/A,3,1,The price was fine.,Male,English,N/A,Chrome,Mac,900,1440,19.4816,
730,List2,pinacolada_big.jpg,semantic_contrast,Click on the spotted cow,.loc4,.loc3,.loc2,.loc1,spotted,modifier,cow,bad,"['loc2', 'loc1', 'loc1']","[1525, 2606, 3207]",honeystick_small.jpg,buddha.jpg,cow_brown.jpg,cow_spotted.jpg,123,filler3,filler,285,[],24,Yes,N/A,3,1,The price was fine.,Male,English,N/A,Chrome,Mac,900,1440,19.4816,
730,List2,chess_big.jpg,contrast,Click on the small football,.loc1,.loc4,.loc3,.loc2,small,modifier,football,bad,"['loc3', 'loc3', 'loc2']","[1083, 2222, 3336]",scrunchie_small.jpg,bib_big.jpg,football_big.jpg,football_small.jpg,80,train40,train,286,[],24,Yes,N/A,3,1,The price was fine.,Male,English,N/A,Chrome,Mac,900,1440,19.4816,
730,List2,pants_big.jpg,no_contrast,Click on the popcorn,.loc4,.loc1,.loc2,.loc3,small,no_modifier,popcorn,bad,"['loc1', 'loc1']","[1024, 1633]",firepants_small.jpg,popcorn_big.jpg,pool_big.jpg,popcorn_small.jpg,115,train75,train,287,[],24,Yes,N/A,3,1,The price was fine.,Male,English,N/A,Chrome,Mac,900,1440,19.4816,
730,List2,pancakes_big.jpg,contrast_control,Click on the tissues,.loc2,.loc1,.loc4,.loc3,small,no_modifier,tissues,bad,"['loc1', 'loc1']","[973, 1694]",pancakes_small.jpg,tissues_big.jpg,bagpipes_big.jpg,tissues_small.jpg,200,filler80,filler,288,[],24,Yes,N/A,3,1,The price was fine.,Male,English,N/A,Chrome,Mac,900,1440,19.4816,
730,List2,pig_big.jpg,no_contrast,Click on the fork,.loc3,.loc2,.loc4,.loc1,small,no_modifier,fork,bad,"['loc2', 'loc2']","[1282, 1970]",blender_small.jpg,fork_big.jpg,wallet_big.jpg,fork_small.jpg,111,train71,train,289,[],24,Yes,N/A,3,1,The price was fine.,Male,English,N/A,Chrome,Mac,900,1440,19.4816,
730,List2,aabacus_four.jpg,semantic_control,Click on the castle,.loc3,.loc4,.loc1,.loc2,small,no_modifier,castle,bad,"['loc1', 'loc4']","[1045, 2162]",aabacus_ten.jpg,castle_big.jpg,weddingcake_big.jpg,castle_small.jpg,246,filler126,filler,290,[],24,Yes,N/A,3,1,The price was fine.,Male,English,N/A,Chrome,Mac,900,1440,19.4816,
730,List2,cannoli_big.jpg,contrast_control,Click on the graduationhat,.loc1,.loc3,.loc4,.loc2,small,no_modifier,graduationhat,bad,"['loc3', 'loc3']","[1582, 3043]",cannoli_small.jpg,graduationhat_big.jpg,footstool_big.jpg,graduationhat_small.jpg,236,filler116,filler,291,[],24,Yes,N/A,3,1,The price was fine.,Male,English,N/A,Chrome,Mac,900,1440,19.4816,
730,List2,shapestoy_big.jpg,contrast,Click on the big tuxedo,.loc3,.loc2,.loc4,.loc1,big,modifier,tuxedo,bad,"['loc1', 'loc1', 'loc1']","[1129, 1954, 2731]",pillow_small.jpg,tuxedo_small.jpg,tuxedo_small.jpg,tuxedo_big.jpg,4,test4,test,292,[],24,Yes,N/A,3,1,The price was fine.,Male,English,N/A,Chrome,Mac,900,1440,19.4816,
730,List2,grenade_big.jpg,semantic_contrast,Click on the wrapped candy,.loc2,.loc1,.loc4,.loc3,wrapped,modifier,candy,bad,"['loc2', 'loc3', 'loc3']","[1998, 3287, 3896]",sandal_small.jpg,seal.jpg,candy_unwrapped.jpg,candy_wrapped.jpg,167,filler47,filler,293,[],24,Yes,N/A,3,1,The price was fine.,Male,English,N/A,Chrome,Mac,900,1440,19.4816,
730,List2,plastichouse_big.jpg,contrast,Click on the small checkerboard,.loc1,.loc4,.loc2,.loc3,small,modifier,checkerboard,bad,"['loc1', 'loc3', 'loc3']","[921, 3704, 4801]",stoplight_small.jpg,binoculars_big.jpg,checkerboard_big.jpg,checkerboard_small.jpg,44,train4,train,294,[],24,Yes,N/A,3,1,The price was fine.,Male,English,N/A,Chrome,Mac,900,1440,19.4816,
730,List2,goose_big.jpg,contrast_control,Click on the muffin,.loc1,.loc4,.loc3,.loc2,big,no_modifier,muffin,bad,"['loc1', 'loc2']","[1637, 3943]",goose_small.jpg,muffin_small.jpg,palette_small.jpg,muffin_big.jpg,183,filler63,filler,295,[],24,Yes,N/A,3,1,The price was fine.,Male,English,N/A,Chrome,Mac,900,1440,19.4816,
730,List2,plant_largeleaves.jpg,semantic_control,Click on the blackboard,.loc4,.loc1,.loc2,.loc3,big,no_modifier,blackboard,bad,"['loc3', 'loc3']","[1373, 2390]",plant_smallleaves.jpg,blackboard_small.jpg,horseshoe_small.jpg,blackboard_big.jpg,243,filler123,filler,296,[],24,Yes,N/A,3,1,The price was fine.,Male,English,N/A,Chrome,Mac,900,1440,19.4816,
730,List2,jacket_big.jpg,no_contrast,Click on the comb,.loc3,.loc4,.loc2,.loc1,big,no_modifier,comb,bad,"['loc1', 'loc1']","[1040, 2065]",bowlingball_small.jpg,comb_small.jpg,spaceship_small.jpg,comb_big.jpg,86,train46,train,297,[],24,Yes,N/A,3,1,The price was fine.,Male,English,N/A,Chrome,Mac,900,1440,19.4816,
730,List2,lollipops_big.jpg,no_contrast,Click on the leaf,.loc1,.loc2,.loc3,.loc4,small,no_modifier,leaf,bad,"['loc2', 'loc2']","[1814, 2639]",crane_small.jpg,leaf_big.jpg,flute_big.jpg,leaf_small.jpg,95,train55,train,298,[],24,Yes,N/A,3,1,The price was fine.,Male,English,N/A,Chrome,Mac,900,1440,19.4816,
730,List2,cheeseplate_big.jpg,semantic_contrast,Click on the yellow plate,.loc1,.loc4,.loc3,.loc2,yellow,modifier,plate,bad,"['loc3', 'loc2', 'loc2']","[1450, 2895, 3784]",kooshball_small.jpg,legoblocks.jpg,plate_blue.jpg,plate_yellow.jpg,179,filler59,filler,299,[],24,Yes,N/A,3,1,The price was fine.,Male,English,N/A,Chrome,Mac,900,1440,19.4816,
730,List2,hawaiianshirt_red.jpg,semantic_control,Click on the scrunchie,.loc1,.loc2,.loc3,.loc4,small,no_modifier,scrunchie,bad,"['loc2', 'loc2']","[2025, 3399]",hawaiianshirt_blue.jpg,scrunchie_big.jpg,celery_big.jpg,scrunchie_small.jpg,260,filler140,filler,300,[],24,Yes,N/A,3,1,The price was fine.,Male,English,N/A,Chrome,Mac,900,1440,19.4816,
730,List2,groceries_big.jpg,contrast,Click on the small teabag,.loc3,.loc2,.loc1,.loc4,small,modifier,teabag,bad,"['loc1', 'loc4', 'loc4']","[3479, 5073, 6002]",lion_small.jpg,chipmunk_big.jpg,teabag_big.jpg,teabag_small.jpg,60,train20,train,301,[],24,Yes,N/A,3,1,The price was fine.,Male,English,N/A,Chrome,Mac,900,1440,19.4816,
